# timestamp wx wy wz ax ay az
1652460790494926080 0.0015700728470367 0.0044333766780827 0.0871457400264900 0.0151640776043407 -0.0076826471856279 0.0051807069525093
1652460790511837184 0.0016085890637441 0.0045053456353313 0.0872279414538006 0.0135004721045653 -0.0084180033853666 0.0055634620996662
1652460790523512576 0.0016436690843441 0.0045218177514304 0.0872499522301221 0.0127277118517693 -0.0087822577341435 0.0057270287331945
1652460790537546752 0.0017001896878420 0.0045195732351710 0.0872676484775968 0.0119995487842235 -0.0091415809165582 0.0058597851523124
1652460790550082048 0.0017774264321839 0.0045114626671938 0.0873216770965368 0.0113117220355072 -0.0094900729873268 0.0059540487854869
1652460790566272512 0.0018297120351682 0.0045187190844348 0.0873787255759189 0.0106539554776539 -0.0098218402554210 0.0060036060033774
1652460790584797440 0.0018347883124792 0.0045499032163202 0.0874092195149434 0.0100199844771153 -0.0101307094866442 0.0060044375490877
1652460790599040000 0.0018303849004628 0.0045884777410691 0.0874301393079231 0.0094153052436967 -0.0104091025406389 0.0059550662359393
1652460790612766208 0.0018159314783994 0.0046142676263519 0.0874369724955590 0.0088529747209262 -0.0106501479564079 0.0058573529084785
1652460790624334592 0.0017924499155537 0.0046144899142281 0.0874327390188415 0.0083469615508691 -0.0108493734918580 0.0057165850385518
1652460790631005952 0.0017476411662784 0.0045986005731934 0.0873775226336841 0.0069009175237420 -0.0112431069547023 0.0050753439739218
1652460790655508480 0.0017776989390882 0.0045549497481850 0.0873066060729098 0.0060594632638306 -0.0113663251396991 0.0044008897718604
1652460790664630528 0.0017931232980552 0.0045452449815844 0.0872602343569953 0.0058916770396605 -0.0112946232729251 0.0041360312959341
1652460790670825728 0.0017764292809638 0.0045391279324853 0.0872097923541307 0.0057410637575757 -0.0111840739038014 0.0038532036753526
1652460790687620096 0.0016421877895468 0.0045221340069785 0.0871874692857484 0.0054375006900592 -0.0108947763955226 0.0032590310458837
1652460790695061760 0.0015873711101061 0.0045029847272283 0.0871989797279349 0.0052761872881320 -0.0107322303062634 0.0029690279726828
1652460790704156928 0.0015590968462910 0.0044831544678794 0.0872072557341993 0.0051041958301666 -0.0105691225454290 0.0026968954095206
1652460790710795776 0.0015489555841688 0.0044660135926775 0.0872165930542678 0.0049161062991135 -0.0104132861156235 0.0024469448182713
1652460790735910400 0.0015276223847989 0.0043312778358647 0.0872318823566203 0.0042504027844204 -0.0099847679533772 0.0018353359561836
1652460790745122816 0.0014944262721619 0.0042490414344981 0.0872171148750663 0.0040267311823120 -0.0098308044807119 0.0016831444462020
1652460790753896704 0.0014381440793393 0.0041785249959584 0.0871916261251480 0.0038408674128332 -0.0096526133844274 0.0015676560521218
1652460790767294208 0.0013146999058486 0.0041088410749987 0.0871121356016402 0.0037075981797864 -0.0091858314444388 0.0014935067221571
1652460790775323904 0.0012912564581833 0.0041040892679374 0.0870554737994478 0.0037990423437819 -0.0088881525860060 0.0015513265998157
1652460790786608384 0.0013058319771523 0.0041061896273763 0.0869895678712398 0.0039996893017250 -0.0085471051914516 0.0016722341200495
1652460790793829120 0.0013355956146684 0.0041156298932529 0.0869065738732585 0.0043583081499952 -0.0083140288782783 0.0017943315439009
1652460790808902144 0.0013368731747402 0.0041331960680528 0.0868280463709740 0.0047542423245075 -0.0079083246843664 0.0020141499426093
1652460790821076224 0.0012793640883839 0.0041661296606691 0.0867155971294472 0.0052322215411102 -0.0074970656306699 0.0022705658823052
1652460790832540672 0.0012001112306045 0.0042218542265089 0.0865950690126234 0.0057805358530015 -0.0071020015831490 0.0025624061388501
1652460790841247232 0.0011473546847679 0.0042989822129751 0.0864942453170885 0.0063875585873064 -0.0067345296504360 0.0028923288985727
1652460790855801600 0.0011031109956757 0.0043838161078455 0.0863813714464782 0.0070396973959085 -0.0063938832263337 0.0032608894564812
1652460790872798208 0.0010379507470915 0.0044703363599357 0.0862197478414312 0.0077271785271052 -0.0060740030755434 0.0036619478375876
1652460790884168448 0.0009769343999668 0.0045742614780900 0.0860394070563735 0.0084541743340891 -0.0057670729544555 0.0040837536881788
1652460790897833472 0.0009404074855868 0.0046940068640901 0.0858741190302404 0.0092357077945659 -0.0054625365295782 0.0045142136585379
1652460790903679232 0.0009212744595709 0.0048107722750914 0.0857397101645573 0.0100843690215995 -0.0051485620289500 0.0049434108555912
1652460790911877376 0.0008951095675606 0.0049162761315584 0.0856297460597231 0.0109970127870538 -0.0048207188527876 0.0053624380832410
1652460790931255040 0.0008663485894046 0.0050126675764526 0.0855464537280203 0.0119510392286884 -0.0044870718348380 0.0057626950785274
1652460790965837568 0.0008697902356893 0.0051013814407332 0.0854811771817035 0.0126969710498743 -0.0039192043652468 0.0060993299016679
1652460790981579776 0.0008805462272831 0.0051753572912843 0.0854628782631304 0.0136409539948986 -0.0036048661753810 0.0064519375516535
1652460790998842880 0.0008839416453529 0.0052443667504531 0.0854318850560997 0.0145551757653017 -0.0032978544866727 0.0067856764058017
1652460791015731968 0.0008383521642435 0.0053052057401685 0.0853453938549516 0.0154415574757927 -0.0029870085316995 0.0071029933902092
1652460791030631424 0.0007625648440746 0.0053413025617277 0.0852313943092100 0.0163004724522830 -0.0026646118821687 0.0074008926103679
1652460791046610176 0.0006667640742011 0.0053553944924680 0.0851121605673682 0.0171243819766929 -0.0023318420939770 0.0076734884017378
1652460791062878464 0.0005491834295920 0.0053600302990878 0.0849842643280497 0.0179042314179421 -0.0019969176943406 0.0079159676264456
1652460791079170816 0.0003205772141644 0.0053356091064673 0.0847052715916744 0.0193085376164495 -0.0013514622517206 0.0083081181843023
1652460791091104256 0.0002205484111382 0.0052959817071799 0.0845460042004929 0.0199110671138607 -0.0010513138355362 0.0084651532282535
1652460791107374592 0.0001199802386885 0.0052553819807270 0.0843231395451378 0.0205442968150205 -0.0005355386874977 0.0086171372372469
1652460791126935808 -0.0000040092424675 0.0052116761109264 0.0839627436659884 0.0212975419103736 -0.0000611145878775 0.0088548323636283
1652460791149996544 -0.0000614148802878 0.0051584045530935 0.0836131286714689 0.0217203024188062 0.0003294939954926 0.0090570179136705
1652460791176110080 -0.0002025496117233 0.0050565753429032 0.0832948955250804 0.0219532085131309 0.0006854498360157 0.0091976895498604
1652460791188686848 -0.0002835257448307 0.0050219570739360 0.0831176070272829 0.0220748241167492 0.0008642373859854 0.0092392374136112
1652460791199486464 -0.0003680891829599 0.0049547084723680 0.0827622869479671 0.0224295294650069 0.0012460501101948 0.0092620137155768
1652460791210603008 -0.0004116900549782 0.0049109983361225 0.0826051294926969 0.0226680593998143 0.0014567141977337 0.0092418212030218
1652460791220291328 -0.0004651316228573 0.0048742265928050 0.0824502245929348 0.0229331736690377 0.0016755007472790 0.0092040227731524
1652460791237639168 -0.0005124414280946 0.0048332716439695 0.0822923575002243 0.0232151939733330 0.0018895490038570 0.0091531598227659
1652460791248864512 -0.0005305767204091 0.0047648647329439 0.0821534642464780 0.0235143608091893 0.0020858712507903 0.0090919929095321
1652460791260753920 -0.0005326924590200 0.0046595183386428 0.0820193003915139 0.0238301748732783 0.0022584051981014 0.0090211672342540
1652460791287302656 -0.0005211475964626 0.0042936481125634 0.0816784714776219 0.0246747521338494 0.0026328719675080 0.0087336763321073
1652460791303111936 -0.0005041083064345 0.0041949384945294 0.0816341377897262 0.0248709999471039 0.0026628743381385 0.0086275133477030
1652460791319986688 -0.0004181084584506 0.0040413900855900 0.0816291452039084 0.0250422151289209 0.0025060492263023 0.0084182290449864
1652460791332716800 -0.0003856952130346 0.0039725840366515 0.0816042973765515 0.0250023055561600 0.0023287813936376 0.0083216310479304
1652460791350518784 -0.0003857467941723 0.0039056782193257 0.0815590662340567 0.0248776743926524 0.0020997809801459 0.0082243128870786
1652460791365825280 -0.0004117085682935 0.0038635344911736 0.0815477848966870 0.0246760941861599 0.0018312677590238 0.0081190861877836
1652460791378337536 -0.0004372088822838 0.0038533091215889 0.0816095883128545 0.0244096216516506 0.0015383627230055 0.0080045312991392
1652460791386696704 -0.0004410595583077 0.0038643262586097 0.0817327814372535 0.0240985902329820 0.0012395629173646 0.0078842352025733
1652460791393342976 -0.0004232196354739 0.0038762419301697 0.0818676930746672 0.0237671877392968 0.0009507301427058 0.0077613149439643
1652460791404841472 -0.0004052193159427 0.0038845000739165 0.0819838990425652 0.0234284067165409 0.0006786655392481 0.0076357679540760
1652460791425297408 -0.0004170988708283 0.0038903925732246 0.0821839772182369 0.0226863711818380 0.0001737257592536 0.0073698298644797
1652460791439080960 -0.0004132839531695 0.0039444812869067 0.0824559086681750 0.0217264767253402 -0.0002765525514091 0.0070389032487309
1652460791448133888 -0.0004062530881242 0.0039845457643328 0.0826375565713898 0.0211833685231583 -0.0004846232892042 0.0068513840735332
1652460791459554304 -0.0004223702289370 0.0040055667205812 0.0828368435692889 0.0205947024206703 -0.0006771989938379 0.0066445870293490
1652460791476964608 -0.0004578652804830 0.0039975239212079 0.0830410084631782 0.0199649500170380 -0.0008584662757281 0.0064196213057281
1652460791488219648 -0.0004705693037585 0.0039813440165784 0.0832642549093280 0.0192935213232311 -0.0010317927937609 0.0061788847869164
1652460791495357696 -0.0004693199386957 0.0039647439874420 0.0834947665657634 0.0185714818698636 -0.0012021344578287 0.0059279562978256
1652460791512541184 -0.0004653813254173 0.0039503979704620 0.0837431535282912 0.0177940690158108 -0.0013766194994038 0.0056735796784231
1652460791525500416 -0.0004617559782884 0.0039424552719801 0.0840165388224588 0.0169809487679672 -0.0015569048258948 0.0054230869263944
1652460791538322176 -0.0004468097038067 0.0039325208889718 0.0842779147604520 0.0161462153690745 -0.0017194727770593 0.0051734192614274
1652460791562659840 -0.0003500664720123 0.0037688831746365 0.0851146232242455 0.0139119301577732 -0.0021807670101883 0.0046123666864039
1652460791573396992 -0.0003274799486171 0.0036852060333433 0.0854017232389570 0.0132351871323125 -0.0023172935884226 0.0044927712868579
1652460791592239616 -0.0003726546452570 0.0035468606523806 0.0858907104658547 0.0119835867686479 -0.0025810757470724 0.0043686466476370
1652460791607417344 -0.0003920693220317 0.0034040008748823 0.0863510795129311 0.0108709150240325 -0.0028423219321088 0.0043444773485608
1652460791615096064 -0.0004312065860327 0.0032978489389860 0.0865541889962611 0.0103890078699023 -0.0029703923964120 0.0043538696498354
1652460791624843520 -0.0004707044748558 0.0031973698693170 0.0867429147212299 0.0099667721858841 -0.0030940094427626 0.0043764702067414
1652460791632508672 -0.0004859624995000 0.0031129370575765 0.0869400853493683 0.0096070380672203 -0.0032110249522478 0.0044114930063917
1652460791647745536 -0.0005347205210203 0.0029670415560925 0.0873708946393862 0.0090821309255913 -0.0034162460754430 0.0045130918221044
1652460791655265536 -0.0005901020067438 0.0028932471305732 0.0875633906629803 0.0089229836260869 -0.0034954809194386 0.0045775911553882
1652460791663484416 -0.0006314630800425 0.0028148868533596 0.0877416010296514 0.0088360903582677 -0.0035515447297020 0.0046521518528054
1652460791675691520 -0.0006432235791366 0.0027341475530486 0.0879310351599218 0.0088182077448813 -0.0035799113285564 0.0047403209822381
1652460791679488768 -0.0006347258296200 0.0026581545716942 0.0881231345108143 0.0081946005948552 -0.0038069586902962 0.0047303115140335
1652460791694735872 -0.0006257945279805 0.0025090101388334 0.0885494440371911 0.0084241252698866 -0.0037033993493713 0.0050108086372322
1652460791707517952 -0.0005993194882527 0.0024473279361540 0.0887349880476705 0.0086055406000242 -0.0036100765026824 0.0051883286772641
1652460791727105792 -0.0005420564152519 0.0023669535390029 0.0892580913511931 0.0093728594244756 -0.0032987198290426 0.0058003106815292
1652460791745541376 -0.0004906808284612 0.0023181589172073 0.0896078794842277 0.0099825364168195 -0.0031950734653281 0.0061591482841186
1652460791760570880 -0.0004784589433866 0.0023323556566031 0.0897461079803127 0.0102971888745358 -0.0031834830415862 0.0063063044023158
1652460791776926208 -0.0004737255584626 0.0023654594582078 0.0898802978557878 0.0106088790727815 -0.0031950052812310 0.0064318705157063
1652460791784490752 -0.0004911519523033 0.0023929357797469 0.0899772895480406 0.0109008254220789 -0.0032341952092732 0.0065376670942928
1652460791793082112 -0.0005135371158966 0.0023961129477938 0.0900237898064082 0.0111575734446128 -0.0033045784836301 0.0066253091540190
1652460791799518720 -0.0005027746711118 0.0023651539381086 0.0900542340216648 0.0113799809148584 -0.0033989082326467 0.0066957660959865
1652460791813647872 -0.0004747029590960 0.0023087264563651 0.0900720203705078 0.0115799965706604 -0.0035046212674972 0.0067502801259181
1652460791827913984 -0.0004559009312091 0.0022710119387236 0.0900725854090898 0.0117653529124357 -0.0036163075969145 0.0067914317311823
1652460791849049856 -0.0004591502086132 0.0022728311534127 0.0900668152868692 0.0119378094418544 -0.0037376730245490 0.0068259458273141
1652460791863833600 -0.0004647638923891 0.0023013544598596 0.0900430034919476 0.0121049424330032 -0.0038721433748406 0.0068654120193070
1652460791877061376 -0.0004674629917990 0.0023517981128444 0.0899667252702147 0.0122833510732633 -0.0040164217219077 0.0069208057288421
1652460791895208704 -0.0003927346893779 0.0025439966236335 0.0896496635134287 0.0120324077598046 -0.0044862500212941 0.0070175639510084
1652460791911683328 -0.0003207222127866 0.0027856817566637 0.0893257689438341 0.0125838858118126 -0.0047416567407485 0.0072363010808159
1652460791923083264 -0.0002943666893686 0.0028993162408252 0.0891793662443441 0.0128956549129464 -0.0048524875540548 0.0073517904049300
1652460791936425984 -0.0002272087046981 0.0031372329664539 0.0889501088566267 0.0136100414747256 -0.0049999305255371 0.0075682435327883
1652460791943710208 -0.0001985694737666 0.0032500399044798 0.0888472370941149 0.0140044152503409 -0.0050214187017000 0.0076605757074044
1652460791957865472 -0.0001677936359299 0.0033479760075983 0.0887232128836511 0.0144088016363843 -0.0050081722658950 0.0077374326560511
1652460791974714624 -0.0001676025533136 0.0035607103654042 0.0883154226527385 0.0152047509593862 -0.0049082992070067 0.0078479765585858
1652460791984430848 -0.0001852212356543 0.0036756123320303 0.0880886216264654 0.0155902835089545 -0.0048342161016194 0.0078886186045532
1652460791992115200 -0.0001725659550389 0.0037952960117566 0.0879237724679813 0.0159749161471573 -0.0047429685936824 0.0079197396098352
1652460792004317696 -0.0001434171330492 0.0039334435202716 0.0878082838516388 0.0163604574746184 -0.0046326947999209 0.0079367112340460
1652460792022550016 -0.0001130440998680 0.0042719249086036 0.0875780798781870 0.0171034519536133 -0.0043803773994836 0.0079141981324658
1652460792032693248 -0.0001002974575089 0.0044245894900593 0.0874454420612993 0.0174380192591392 -0.0042611258986526 0.0078769262186599
1652460792048217088 -0.0000898235996469 0.0045654668825832 0.0873169830139370 0.0177461775107163 -0.0041543205406381 0.0078281831538647
1652460792055164160 -0.0000796164160223 0.0047021158550399 0.0872010465724722 0.0180447603608688 -0.0040545408147089 0.0077730769517757
1652460792062951936 -0.0000438168499663 0.0048381479520701 0.0871013064930699 0.0183582850604108 -0.0039493843754684 0.0077156170420142
1652460792071266048 0.0000102216947176 0.0049560216837671 0.0869858233617863 0.0187037106355607 -0.0038264893218147 0.0076586740717752
1652460792090641152 0.0000717321636785 0.0050477497857130 0.0868737925322360 0.0190879758266800 -0.0036774708625361 0.0076040407516145
1652460792101947648 0.0000959078190583 0.0051418200847110 0.0867568864479138 0.0195164121158552 -0.0034977828253181 0.0075534687929295
1652460792112977152 0.0000934794813822 0.0052516092309400 0.0866643045814926 0.0199939213511639 -0.0032873295889116 0.0075088225600663
1652460792119454976 0.0000594223114356 0.0053618146023733 0.0865863885715325 0.0205119220487353 -0.0030551460631846 0.0074700087375549
1652460792134996480 -0.0000388989912552 0.0055313173008416 0.0865144496989482 0.0215687408469727 -0.0025918174344181 0.0073852527144213
1652460792146115840 -0.0000750411048452 0.0056064974057268 0.0864724816759141 0.0223266452753544 -0.0026239767582756 0.0072128168005403
1652460792167511552 -0.0003012309948124 0.0057582486274279 0.0863418326715408 0.0235059364364152 -0.0020863075161555 0.0069689609772003
1652460792176057600 -0.0003690981576239 0.0057616917107296 0.0863204035992346 0.0237659257931149 -0.0019478760189462 0.0068878827594830
1652460792192157184 -0.0004552670167972 0.0057472493436770 0.0863516959288253 0.0240524582602165 -0.0017641237076020 0.0067367227471082
1652460792204265472 -0.0005006638975735 0.0057614763872448 0.0863880050162234 0.0240770815931632 -0.0017094425291984 0.0066620822380250
1652460792217660416 -0.0005593430967868 0.0057884813675736 0.0864144527191381 0.0240276536621648 -0.0016654423540755 0.0065850285320005
1652460792222660352 -0.0006010513126367 0.0058188471011845 0.0864758265376500 0.0239217104438952 -0.0016220622817357 0.0065041754542149
1652460792239443200 -0.0006465059337573 0.0058377128981978 0.0867331930145467 0.0236232365862644 -0.0015251471541583 0.0063379876172799
1652460792250569216 -0.0006666028453807 0.0058156622743024 0.0868782830912163 0.0234419149164116 -0.0014796213714495 0.0062595738037414
1652460792254975488 -0.0006808435189427 0.0057775996180960 0.0870206060533740 0.0232349491843423 -0.0014444761895302 0.0061883309855326
1652460792263312384 -0.0007123422252163 0.0057280769591790 0.0871462760270541 0.0229985761392465 -0.0014239919113060 0.0061279779975923
1652460792318764544 -0.0010110652889877 0.0053170275632672 0.0876626628527120 0.0213361449398877 -0.0013628916699363 0.0060798000545897
1652460792335578112 -0.0011352699094668 0.0050422906133723 0.0879906848420123 0.0200105650149654 -0.0011379688396029 0.0062009845454839
1652460792350861824 -0.0012579270709771 0.0047518265437776 0.0882478986136988 0.0184550360067975 -0.0006464542419116 0.0063901682862663
1652460792366956800 -0.0013556647498071 0.0045690252057348 0.0883712990055185 0.0176149514374618 -0.0003250413171566 0.0064987096813762
1652460792378260992 -0.0014668190041192 0.0043598332579486 0.0884992964593427 0.0167461853597823 0.0000187216449459 0.0066068302940546
1652460792391010304 -0.0016760295531047 0.0039062488168915 0.0887075894471442 0.0148871040827512 0.0007045149826327 0.0067914180420409
1652460792411922944 -0.0017691932257196 0.0035488683780899 0.0889517150106419 0.0131480833890769 0.0014004101014896 0.0069264151875122
1652460792431135744 -0.0018751032457603 0.0031774790834389 0.0891742624397165 0.0115391624765031 0.0020617172201168 0.0069897499351771
1652460792442872832 -0.0019146288600837 0.0029595123151711 0.0893003809571351 0.0107780006451298 0.0023326491416999 0.0069837068413845
1652460792455905792 -0.0019680641768773 0.0025484993934892 0.0895786242572107 0.0093454641911735 0.0026796463758152 0.0068935887273373
1652460792469319936 -0.0020166958921585 0.0023558062164672 0.0896946102733723 0.0086746233753976 0.0027364633722839 0.0068118232570997
1652460792480651264 -0.0020770495520396 0.0021540843883450 0.0897906794738756 0.0080372628751823 0.0027131362738406 0.0067088385985776
1652460792488904448 -0.0021073492453070 0.0019367641902689 0.0899031280753328 0.0074501511191888 0.0026223808199083 0.0065898901652405
1652460792499868160 -0.0020957848588853 0.0017055658650912 0.0900453881437336 0.0069380009042422 0.0024834950458717 0.0064626350654130
1652460792510859008 -0.0021319062245872 0.0012960475918601 0.0902797725312876 0.0064690169922427 0.0013996504688717 0.0067015454427120
1652460792543039488 -0.0023829082498878 0.0006062766243333 0.0906259283023187 0.0060028544953373 0.0006627449968762 0.0062916401601454
1652460792551156736 -0.0023778628272640 0.0004399780576085 0.0906660237064502 0.0060669228653074 0.0005008804373858 0.0062088735326759
1652460792558671104 -0.0023806784099001 0.0002865576224437 0.0906853149272428 0.0061800326939720 0.0003509850981627 0.0061319545075081
1652460792574702336 -0.0024539439364521 0.0000055860881530 0.0907356061145814 0.0064853121017650 0.0001107076892355 0.0060159505854272
1652460792590849792 -0.0024778039308185 -0.0002682994564379 0.0908278389026298 0.0067982648106998 -0.0000523278545972 0.0059558655124119
1652460792599224576 -0.0024679552061985 -0.0004168938027263 0.0908764595914827 0.0069370837809215 -0.0001136054863815 0.0059297134032436
1652460792622609664 -0.0024584453576952 -0.0008086939636162 0.0909411453966177 0.0072417836304146 -0.0001788115985042 0.0057996036362453
1652460792640655104 -0.0024566123682094 -0.0010986919859830 0.0909358254443754 0.0073886440966001 -0.0000649587056413 0.0056689712469206
1652460792661241344 -0.0024906930915068 -0.0013248523909463 0.0908580329089114 0.0075479029704873 0.0002018218631267 0.0054383686981850
1652460792673066752 -0.0025220761517277 -0.0013790202540324 0.0907425117764993 0.0076261715496227 0.0003953353277973 0.0052588780087729
1652460792678707968 -0.0025157655616085 -0.0013948556815876 0.0906165483057888 0.0077140139266028 0.0006340881996778 0.0050375255518569
1652460792687043072 -0.0024493111321127 -0.0013914435220398 0.0905311323236012 0.0076769904770871 0.0007394128127660 0.0043265483391741
1652460792726921216 -0.0024364589743613 -0.0012420918347877 0.0902097315025939 0.0083913413878198 0.0024325457937617 0.0029981049292511
1652460792745692672 -0.0024493542476859 -0.0011864374605244 0.0901235619650846 0.0085291537286372 0.0029248564761367 0.0026224801089644
1652460792757109504 -0.0024339833605450 -0.0011417209138232 0.0900507958195968 0.0085626702873447 0.0034389081077635 0.0022288292138862
1652460792798156032 -0.0025230489657185 -0.0010993319150769 0.0895690533458049 0.0088164079602925 0.0054885563052333 0.0005099030371597
1652460792817525248 -0.0025943025673581 -0.0010834741817741 0.0894445986045047 0.0088548567998392 0.0059687113873229 0.0000991859829940
1652460792833097216 -0.0026922809917056 -0.0010712658120161 0.0893043260209141 0.0088741944130157 0.0064185172092754 -0.0002612400673438
1652460792845803776 -0.0027714950071881 -0.0010827051659544 0.0891706962558975 0.0081580423168531 0.0070895413231123 -0.0007616119481658
1652460792882305024 -0.0030134160416403 -0.0012817942791266 0.0889609309641158 0.0081259959938225 0.0085524365710576 -0.0013650396632911
1652460792895558144 -0.0030987080203872 -0.0014552139845187 0.0889329603341907 0.0080059739431824 0.0091631230468604 -0.0014093362456433
1652460792903207424 -0.0031666277007811 -0.0015248751749662 0.0888908688799213 0.0079374433501058 0.0094455858193175 -0.0013787844354686
1652460792913985792 -0.0032309178157269 -0.0015852180519326 0.0888397728280954 0.0078720255498977 0.0097024846134461 -0.0013161896277978
1652460792922531584 -0.0032561258334841 -0.0016496750072719 0.0888018198606312 0.0078112374616086 0.0099282655455049 -0.0012207002797139
1652460792928212736 -0.0032410837172905 -0.0017245793156680 0.0887820331824510 0.0077540208983234 0.0101250331623690 -0.0010897527081679
1652460792935020544 -0.0032125536655461 -0.0018049658070612 0.0887604622037324 0.0076971535962192 0.0102986723147312 -0.0009234785322108
1652460792958166528 -0.0031629299871422 -0.0019618094525914 0.0886928485649884 0.0073539175768572 0.0105897700803784 -0.0005625203135321
1652460792986362880 -0.0031245520631223 -0.0020467789562698 0.0887097191386166 0.0072944528375954 0.0107032672941906 -0.0003262379934812
1652460792999801856 -0.0030578435582029 -0.0021559515421788 0.0887681046653771 0.0072360296640498 0.0107920243789545 -0.0000782139525287
1652460793015438848 -0.0029661519426366 -0.0024393023088309 0.0887200877792571 0.0070624437653912 0.0108620926581919 0.0004298855376765
1652460793031807488 -0.0028027026372329 -0.0026066127862077 0.0885128777753065 0.0068416876563940 0.0107430166839537 0.0009253375250815
1652460793041305600 -0.0027267601324304 -0.0026449571736899 0.0883788153024864 0.0067791668957299 0.0106110877475610 0.0011536084721666
1652460793050097408 -0.0026705111291499 -0.0026761424159653 0.0882342270387139 0.0067799972829189 0.0104381779352888 0.0013612336486819
1652460793065034496 -0.0025469781392608 -0.0027243745022398 0.0879283740722988 0.0070327696207272 0.0100133971340295 0.0017240571706539
1652460793071087872 -0.0024537822108123 -0.0027381631536418 0.0877539279952166 0.0071277147779431 0.0097910993332663 0.0018434069512428
1652460793103018496 -0.0022137087193353 -0.0026632497771468 0.0869833185089867 0.0091357321683959 0.0088452146983735 0.0023753324112477
1652460793120078848 -0.0020751506172445 -0.0025629976492769 0.0866610837748492 0.0104165202460673 0.0082853571959799 0.0026359072738390
1652460793128175104 -0.0019895584525094 -0.0024823631800130 0.0865161076524027 0.0110598758208450 0.0080016958669094 0.0027742427496057
1652460793134896640 -0.0019041798598025 -0.0023765902265803 0.0863668671119607 0.0116733046679713 0.0077186098913460 0.0029090025834288
1652460793159602688 -0.0015727592442405 -0.0019260082049624 0.0859117648857471 0.0130434771244473 0.0069215172664018 0.0032355122067066
1652460793223466752 -0.0008241043302283 -0.0002986032846221 0.0848423992012065 0.0145148382866163 0.0054561098908965 0.0035834545768822
1652460793245581824 -0.0006811408490891 0.0002356263165177 0.0845352969402666 0.0145906700816212 0.0052303155201294 0.0034515029638290
1652460793258286592 -0.0005839086197719 0.0005214110849747 0.0844001209207267 0.0146126098268915 0.0051557956948105 0.0033791748791576
1652460793269055488 -0.0004483997450860 0.0008047319354650 0.0842978459007182 0.0146300739421117 0.0051095574069828 0.0033192645791453
1652460793280310272 -0.0003043129457065 0.0010735995910010 0.0841951990964353 0.0146432161220540 0.0050815405923407 0.0032777542057743
1652460793294745600 -0.0001549208561490 0.0013335744968372 0.0840966149798190 0.0146538081833418 0.0050626803136373 0.0032542091932879
1652460793308619264 0.0000064775650426 0.0015842712452541 0.0840037494981459 0.0146691189454336 0.0050514722734621 0.0032456114280525
1652460793327920384 0.0002403350378900 0.0020261972201345 0.0837422258848883 0.0147625276994666 0.0050599574950299 0.0032776450911507
1652460793341671680 0.0003242572339765 0.0022121257969455 0.0836056069868261 0.0148674367968528 0.0050815050692938 0.0033286223014473
1652460793366628864 0.0004437182020513 0.0023798376929428 0.0835192196620300 0.0150175720195125 0.0051190694089419 0.0034060873226245
1652460793379273216 0.0006064483330848 0.0025468109827105 0.0834714365056408 0.0151982558121051 0.0051771640305789 0.0035058121787040
1652460793385502464 0.0007714395659943 0.0027284418488862 0.0834309053320555 0.0153844131038349 0.0052528184532580 0.0036213087000036
1652460793398434304 0.0008850185643519 0.0029134948253237 0.0833660669117046 0.0155514096914209 0.0053312552534779 0.0037453975532635
1652460793414663936 0.0009220658294788 0.0030836117256033 0.0832552842625530 0.0156808176434872 0.0053914554299872 0.0038696737958677
1652460793425370880 0.0009236930477299 0.0032353235598581 0.0831254652933921 0.0157618058639496 0.0054172205356297 0.0039866879113804
1652460793439684864 0.0009572114909357 0.0033650927486025 0.0830430762690703 0.0157917088977314 0.0054042465288212 0.0040934641934530
1652460793452835840 0.0010410668504879 0.0034658001002524 0.0830380784440060 0.0157737512335042 0.0053564728818418 0.0041900371329782
1652460793488263936 0.0012034638879623 0.0035506756762690 0.0831909340031766 0.0156010422071238 0.0051601109451533 0.0043401847987753
1652460793500242176 0.0012224688651359 0.0035383082305311 0.0832618707158500 0.0153900418371421 0.0055235462221591 0.0044536743004253
1652460793525118976 0.0012284710030506 0.0035029236439054 0.0833423402959757 0.0151633632120148 0.0053330675006611 0.0044693688219454
1652460793540840448 0.0012460057796946 0.0034665474838827 0.0834337289862136 0.0148742955843859 0.0051150887809977 0.0044643096865167
1652460793560638464 0.0012761621006737 0.0034446931980346 0.0835690561652739 0.0145199500780793 0.0048760003470269 0.0044431003176382
1652460793573245184 0.0012816666955885 0.0034336453438522 0.0837266082675352 0.0140919595446403 0.0046188922118076 0.0044065591524237
1652460793585529344 0.0012544969542756 0.0034306718542438 0.0838846746126246 0.0135867597903862 0.0043459656539504 0.0043543055122518
1652460793600482048 0.0012109799732968 0.0034376880705784 0.0840453672312765 0.0130167864407482 0.0040572911112941 0.0042883041521205
1652460793614659840 0.0011363002262533 0.0034577270472160 0.0841923642981225 0.0124076253821700 0.0037484401024252 0.0042121743763540
1652460793627568384 0.0010682284738599 0.0034755461282911 0.0843692030793233 0.0117851225259803 0.0034143303143716 0.0041291842429687
1652460793646243072 0.0010064498459401 0.0034822705910396 0.0845773341486601 0.0111615453334858 0.0030539762379139 0.0040418167271603
1652460793658468864 0.0009129884671717 0.0034700688857408 0.0848005982853381 0.0105338473677268 0.0026690244585915 0.0039524111966769
1652460793664899840 0.0007762547952877 0.0034322836461621 0.0850624465841862 0.0098956121347522 0.0022598867361423 0.0038635363454713
1652460793679426816 0.0004666732387488 0.0032488171870853 0.0857613698594137 0.0086059804193995 0.0013735379984505 0.0036891036841496
1652460793696935936 0.0001650195708876 0.0029750511307692 0.0864535371538922 0.0073212534448067 0.0004177791486454 0.0034901020229978
1652460793708525568 0.0000414203766837 0.0028584891578693 0.0867923119942265 0.0066756137683070 -0.0000745901543895 0.0033725791184987
1652460793713542656 -0.0000727110726192 0.0027810120662826 0.0871215678777666 0.0060294180077134 -0.0005679846525809 0.0032454231236387
1652460793724800768 -0.0001947790643978 0.0027381184135959 0.0874273219676695 0.0053853010104735 -0.0010581066920224 0.0031122483517683
1652460793766417920 -0.0005425189785112 0.0027312839306994 0.0884268730142364 0.0034806804783229 -0.0025264260412500 0.0026678458628843
1652460793781463808 -0.0007014344409378 0.0027064091992314 0.0887328623131226 0.0019784711668131 -0.0026247162222115 0.0023275271189705
1652460793842566912 -0.0013117513911386 0.0025753797806760 0.0905606683103029 -0.0005656900868736 -0.0054850155985319 0.0014719822079940
1652460793864236544 -0.0013643419322368 0.0025783647806813 0.0907541988838567 -0.0007816215603208 -0.0059575240879366 0.0013653058418559
1652460793876336384 -0.0013926151740362 0.0025838886638990 0.0909126368324672 -0.0009549450610499 -0.0064369430157065 0.0012764324233759
1652460793887513600 -0.0014169337506069 0.0025919246346384 0.0910411014080786 -0.0011053938273978 -0.0069308334690552 0.0012110793352793
1652460793903738368 -0.0014196746386905 0.0026421905195873 0.0913207129388525 -0.0013592691150311 -0.0079732889667032 0.0011789878021158
1652460793911452672 -0.0013839237847036 0.0026747897718863 0.0914639189200129 -0.0014250014606709 -0.0085136635801114 0.0012229912231146
1652460793919459584 -0.0013467936577655 0.0027085828596203 0.0915751555541853 -0.0014130712338457 -0.0090516718260282 0.0013054037772908
1652460793930421760 -0.0013097585418108 0.0027349626463783 0.0916538669135081 -0.0028775923642940 -0.0095109497670459 0.0008639873352947
1652460793964333312 -0.0011553744861086 0.0028074796335761 0.0918151364719870 -0.0023760726742234 -0.0104513991926342 0.0011729409769250
1652460793978078720 -0.0009945552341034 0.0028802765874053 0.0918841678098945 -0.0019752120080514 -0.0108739860759000 0.0013527878244613
1652460793992969984 -0.0006929605173305 0.0030676949389709 0.0918212024319836 -0.0008292263451504 -0.0116632091280374 0.0017253981482012
1652460793998889216 -0.0005880523639907 0.0031710802742730 0.0916848703989731 -0.0000807959599427 -0.0120521741926808 0.0019052107839295
1652460794011575552 -0.0004897296116027 0.0032939615220189 0.0915524700841413 0.0010723479116019 -0.0133003848926368 0.0019951265898692
1652460794069462528 -0.0003922047476060 0.0034632451855704 0.0913418564038001 0.0019968264758756 -0.0137062316925301 0.0021510537194014
1652460794091799808 -0.0002742205131716 0.0036510959021704 0.0910026150799843 0.0029718825797725 -0.0141176782368458 0.0022912356072522
1652460794107378944 -0.0001339543697612 0.0038387111266003 0.0905055778858974 0.0039689976801879 -0.0145299406401792 0.0024139406830844
1652460794114270208 0.0000094531026818 0.0039895502879588 0.0899065165173917 0.0043412932756662 -0.0147221713110113 0.0009771227628932
1652460794136971008 0.0003681657769496 0.0045422922149301 0.0879064077437424 0.0073857387078477 -0.0158063995638896 0.0012726596872861
1652460794146721792 0.0004790568924096 0.0046917447685597 0.0872412434040127 0.0084703508487797 -0.0161044463822604 0.0013892900139771
1652460794150748160 0.0005886848011586 0.0048137378048466 0.0866046292702183 0.0095993076689805 -0.0163636952015097 0.0015227704702904
1652460794165843456 0.0007040312537468 0.0049291176527393 0.0860065958569117 0.0107689968105490 -0.0165782007293387 0.0016779917587244
1652460794177864704 0.0008699085925325 0.0050480154956929 0.0854647836162039 0.0119726077507808 -0.0167438793073779 0.0018602097572043
1652460794185306368 0.0010481136539920 0.0051602352834242 0.0849338773853762 0.0131937137243424 -0.0168658948270351 0.0020732417109904
1652460794198994688 0.0013154759655080 0.0053608234347251 0.0838591344710898 0.0155998283400931 -0.0170302493969234 0.0026049795489495
1652460794212046336 0.0014406563591965 0.0054176386507191 0.0833418089352755 0.0164753888574520 -0.0170896000040502 0.0029746628143771
1652460794225032192 0.0016269402676082 0.0054955020443763 0.0828299410459673 0.0175860115542050 -0.0170814674250560 0.0033503013876892
1652460794231074560 0.0018341787107680 0.0055693058177726 0.0822771197658853 0.0186331180450932 -0.0170097837362366 0.0037719352707145
1652460794250406144 0.0022262077124503 0.0057073172854182 0.0810838942481100 0.0204847114013662 -0.0166925243188312 0.0047265246149303
1652460794260030464 0.0023861580596465 0.0057710407290782 0.0805489734772832 0.0212924506132812 -0.0164616580338022 0.0052477665057559
1652460794268796672 0.0025045813944426 0.0058394239647375 0.0800838203591578 0.0220281470301407 -0.0161901313081574 0.0057983717430112
1652460794279676416 0.0025838988991284 0.0059182736744818 0.0796532933754615 0.0226934883381462 -0.0158857761039675 0.0063813640132846
1652460794288860672 0.0026513647089698 0.0060139858737352 0.0792604867336203 0.0232933828964194 -0.0155560645570887 0.0069955658065867
1652460794295871744 0.0027480566411704 0.0061162113401559 0.0789563780663109 0.0238389961433416 -0.0152068489398432 0.0076343403382769
1652460794306600192 0.0028491157224580 0.0062070138315931 0.0787120192255979 0.0243416211551377 -0.0148475267372557 0.0082889918054567
1652460794320264960 0.0030426070095895 0.0062972844935156 0.0783084658195308 0.0250796385954626 -0.0141580694520990 0.0096341897869095
1652460794341444608 0.0031725773508082 0.0063929795810064 0.0780453869154375 0.0259714271899853 -0.0134796957764542 0.0108863877092018
1652460794354790400 0.0031705299384205 0.0064480002186376 0.0779480389559514 0.0264155383959074 -0.0131377966697674 0.0114579841447558
1652460794364668672 0.0031664379113512 0.0065176590883339 0.0778685926830287 0.0268506389462195 -0.0127959734947530 0.0119873590769506
1652460794376090880 0.0031951232467236 0.0065956733169901 0.0778250185150770 0.0272763471042163 -0.0124634598847276 0.0124732259393738
1652460794389091584 0.0032519942861577 0.0066740174214912 0.0778187153228742 0.0276956954052845 -0.0121525258384560 0.0129109487130193
1652460794408276992 0.0033925519187805 0.0068281838339059 0.0778835155757857 0.0285188113336898 -0.0116145390231791 0.0136121418419273
1652460794418840832 0.0034835138075722 0.0068806953533976 0.0779891610276615 0.0287963576953077 -0.0113888191806011 0.0138861485329837
1652460794447477760 0.0036289430449843 0.0069748487123624 0.0781824483482398 0.0291986773512364 -0.0111646318362348 0.0140872476671312
1652460794461985024 0.0038036532081445 0.0070995328874828 0.0784517804250650 0.0295998061607414 -0.0109504759439907 0.0142366994124632
1652460794479225600 0.0040129873987630 0.0074413085359522 0.0789584511515796 0.0303817462080908 -0.0105394566451068 0.0143975745159337
1652460794487666432 0.0040704640199630 0.0076271713757657 0.0792116059700649 0.0307494602993649 -0.0103355705786145 0.0144183700467390
1652460794497123072 0.0041229143348693 0.0078096929894452 0.0794777750063221 0.0310940180837809 -0.0101292441094842 0.0144070108441616
1652460794514573824 0.0041562019082005 0.0079969713979508 0.0797209146382074 0.0314098262228367 -0.0099211356976130 0.0143693017195304
1652460794527169280 0.0041630058904810 0.0082253694926790 0.0799510502674353 0.0316962169111854 -0.0097129356031605 0.0143101842728940
1652460794541024256 0.0041781084292520 0.0085093396113245 0.0802302488910948 0.0319609792098526 -0.0095029283080012 0.0142333939890812
1652460794565855488 0.0042171448705798 0.0088328866590501 0.0806176628962028 0.0322143690916469 -0.0092853568323717 0.0141413348185822
1652460794583921664 0.0042370194447963 0.0091757305660116 0.0810606220599642 0.0324581212516927 -0.0090563114115951 0.0140348755969356
1652460794597519104 0.0041986267249884 0.0095345774625917 0.0814836059338978 0.0326866702640461 -0.0088168990500881 0.0139146270576213
1652460794617075712 0.0040288255628761 0.0103401432988093 0.0822920761064029 0.0330849726863482 -0.0083205501180956 0.0136426791483279
1652460794626593792 0.0039215055398774 0.0107432447653198 0.0826760326357291 0.0331803830957092 -0.0080802767839530 0.0136064211251507
1652460794640484352 0.0038132880122511 0.0111552604492185 0.0830291850350447 0.0333021440271683 -0.0078346763528334 0.0134540487036549
1652460794666876672 0.0035936775818774 0.0118880759116998 0.0837071570949337 0.0334496633533054 -0.0073789856350839 0.0131294984387353
1652460794677153024 0.0034578567699868 0.0122532912980234 0.0839851859514626 0.0334940980423916 -0.0071817734853611 0.0129617118521261
1652460794696454912 0.0031776230403427 0.0130157592508835 0.0844547529852725 0.0335597327741396 -0.0068491777149307 0.0126451863055515
1652460794713786624 0.0030778006683499 0.0133841932810473 0.0847432092590008 0.0335868133162773 -0.0066971005460128 0.0125116921236622
1652460794725602304 0.0029854470601667 0.0137383898591598 0.0850467827342993 0.0336069004048439 -0.0065408508847679 0.0124031141901707
1652460794738768384 0.0028667431426577 0.0140800842150172 0.0853028460010660 0.0336134842093588 -0.0063751189148420 0.0123224705965963
1652460794755623168 0.0027349623603324 0.0144067304161020 0.0855245668788586 0.0335956475483886 -0.0062029039490230 0.0122703417979508
1652460794768247296 0.0026088042076058 0.0147270554163446 0.0857253841167606 0.0335374433725258 -0.0060337031658400 0.0122457389224192
1652460794774716928 0.0025007487368076 0.0150441952445672 0.0859177340050652 0.0334269530145433 -0.0058770037561690 0.0122448352846726
1652460794784600064 0.0023815779844778 0.0153569447735145 0.0860385896187944 0.0332611885232921 -0.0057402349815863 0.0122615153364968
1652460794793537024 0.0022376021424991 0.0156568345742491 0.0860479592982084 0.0330405217775001 -0.0056296034374764 0.0122920642337970
1652460794802430720 0.0021058131167011 0.0159278868769212 0.0859965176343837 0.0327616441289186 -0.0055480885104349 0.0123376983351795
1652460794814236160 0.0019786392847421 0.0161642592262357 0.0858931033067526 0.0324159251576297 -0.0054935177784986 0.0124010797155326
1652460794830439424 0.0018562116007170 0.0163407441921062 0.0857853705238232 0.0314909964162162 -0.0059145189523843 0.0122152326144368
1652460794847434496 0.0017373560814877 0.0165455347547857 0.0856315981687970 0.0309720956999587 -0.0059074708720528 0.0123063650086426
1652460794855981056 0.0015916493403506 0.0167400664193973 0.0854060985821823 0.0303444471054667 -0.0059361686316639 0.0124029762289107
1652460794873307648 0.0014049485524707 0.0169080397428804 0.0850804243571708 0.0296029463484147 -0.0060177014396291 0.0125011283312995
1652460794885979648 0.0011582561240716 0.0170605719889655 0.0846382136265778 0.0287553035871001 -0.0061677627628274 0.0125983778862993
1652460794899177216 0.0008837795994535 0.0172070994581101 0.0841608734638688 0.0278162555547729 -0.0063931481479933 0.0126913122578378
1652460794907164160 0.0005927574940063 0.0173162472880382 0.0836914581313995 0.0267023380115037 -0.0067003800233374 0.0127858272700783
1652460794937015808 -0.0000362665248415 0.0175402278963064 0.0827094683747001 0.0244236692163070 -0.0074874091992745 0.0128744876199059
1652460794942824960 -0.0004132129475890 0.0176323193215780 0.0821865466288615 0.0231858296777832 -0.0079468005236241 0.0128653998062665
1652460794961758208 -0.0011986945220875 0.0177887684661787 0.0811165898177834 0.0206732704632180 -0.0088432986679798 0.0127601743307129
1652460794973117952 -0.0015852780984380 0.0178241996207285 0.0805784182672509 0.0194601887173464 -0.0092224918859259 0.0126948199895467
1652460795007301120 -0.0028252876432543 0.0176368013544865 0.0789329344491447 0.0162757047521737 -0.0096585761459368 0.0124792468535108
1652460795018196480 -0.0032494234643427 0.0174966654142895 0.0783640439692041 0.0154343950615828 -0.0098283347216066 0.0124750459794350
1652460795035982336 -0.0040555625894091 0.0171621398711070 0.0773833576547273 0.0140797190385805 -0.0100035219261948 0.0125290896260364
1652460795056323840 -0.0050005173902666 0.0166987647264472 0.0764265706063169 0.0130569438208850 -0.0099591186475576 0.0126457032334838
1652460795064584192 -0.0054885857755347 0.0164417074821197 0.0760195324137764 0.0126180578707530 -0.0098791687655828 0.0127236744724929
1652460795075524096 -0.0059539304908102 0.0161964855662346 0.0756886675186181 0.0121988427905837 -0.0097744877256931 0.0128062568943033
1652460795093283584 -0.0064085834279982 0.0159122577524548 0.0754456199611466 0.0117208098628010 -0.0096563514632452 0.0129448355325735
1652460795107840000 -0.0069030370287450 0.0156504115955130 0.0752295585585534 0.0112758916345838 -0.0095153474244586 0.0129962441302996
1652460795128416256 -0.0075059784336241 0.0153320870443141 0.0750641229640286 0.0108003160432647 -0.0093574525237348 0.0130154881267810
1652460795135159040 -0.0081830825156820 0.0149559495180391 0.0750089477500869 0.0103086940844565 -0.0091842815433719 0.0129960959307511
1652460795147963392 -0.0088926676215608 0.0145283261254116 0.0750684956551689 0.0098231299156633 -0.0090022932521988 0.0129342833354127
1652460795162063360 -0.0095993463179401 0.0140768967152733 0.0752188094388349 0.0093483644695383 -0.0088214008860126 0.0128319436254264
1652460795182846720 -0.0111011056795011 0.0131594181014197 0.0757175480979534 0.0083793619093985 -0.0084748788554358 0.0125435693529241
1652460795203570432 -0.0118429426688944 0.0126564714022667 0.0761091386018199 0.0081568463944975 -0.0082691086792040 0.0121582812896455
1652460795218320128 -0.0125849973738058 0.0122046411026388 0.0765588448648528 0.0076433942213790 -0.0080833567603027 0.0119899714228466
1652460795225108736 -0.0133577230409384 0.0117326877699970 0.0770539567256194 0.0071049140820678 -0.0078968879821691 0.0118242680203673
1652460795231159040 -0.0141364343462378 0.0112401503735664 0.0776102150555030 0.0065233419098542 -0.0077187044616852 0.0116665057593089
1652460795256282112 -0.0161469170855122 0.0098840364849139 0.0793348685294214 0.0045606176869095 -0.0072368005199858 0.0112908823555862
1652460795265298432 -0.0167232732449413 0.0094790116615652 0.0799209228829641 0.0038948774668505 -0.0071013686057555 0.0112118645882016
1652460795278939136 -0.0177690662485861 0.0086728671001438 0.0811714347363668 0.0027156949020175 -0.0069722174484288 0.0108771190818184
1652460795293206528 -0.0182136168460234 0.0083327881703450 0.0817822998782478 0.0020930281721179 -0.0069559127128014 0.0108660734411676
1652460795311286272 -0.0189388061808314 0.0076028904247624 0.0831203363823846 0.0008693830979079 -0.0070632709947921 0.0109648948009659
1652460795329268736 -0.0196148349183747 0.0067932705194038 0.0845294512236209 -0.0004106887470007 -0.0073431765081989 0.0112811720681083
1652460795335699712 -0.0198973963782176 0.0064037681846974 0.0851924758488593 -0.0010769652420441 -0.0075317411010308 0.0115044395975327
1652460795345522176 -0.0201279251620490 0.0060468796961469 0.0857961575706022 -0.0017496259213084 -0.0077438501618665 0.0117569568696721
1652460795350912768 -0.0203089110539514 0.0057340744747763 0.0863662597600785 -0.0024267633434150 -0.0079783613855329 0.0120354585798629
1652460795364794624 -0.0204687946588332 0.0054573690710082 0.0869523239873594 -0.0031100829668798 -0.0082366725294602 0.0123402187748320
1652460795377133824 -0.0205787258038868 0.0052099347287136 0.0876101223646426 -0.0037996986824765 -0.0085187838568680 0.0126723239761131
1652460795382971392 -0.0206284555569532 0.0049930237058199 0.0882955726917526 -0.0044963596528647 -0.0088237665063055 0.0130349068837645
1652460795400303104 -0.0205420105986925 0.0046428522072933 0.0895046889007862 -0.0059258670084668 -0.0095152848576893 0.0138675967698683
1652460795415237888 -0.0202578545523078 0.0043134906460199 0.0905371442617914 -0.0073647796531694 -0.0103331245410101 0.0148555454372982
1652460795423119104 -0.0200528631236058 0.0040785692622905 0.0910039419748192 -0.0087638110896175 -0.0097543421763855 0.0151620562529470
1652460795431013632 -0.0197832713508261 0.0039247867922004 0.0914221448709940 -0.0094186060761831 -0.0101702615605119 0.0157664535175339
1652460795463499520 -0.0188160687039098 0.0036215924572705 0.0924267380580229 -0.0110522382948805 -0.0110741850337659 0.0178094567181623
1652460795471586304 -0.0184480803532050 0.0035497307950439 0.0927324063441656 -0.0114504122941124 -0.0112322919199971 0.0185372858885287
1652460795480852480 -0.0180496810978000 0.0034719420301829 0.0930602154755730 -0.0117593014563864 -0.0113156260947664 0.0192709467099378
1652460795496526080 -0.0172158562645686 0.0033258687909071 0.0935935785987574 -0.0121376510735737 -0.0112863193449904 0.0206978140030460
1652460795517491200 -0.0162445454433575 0.0032688620441479 0.0939172259597428 -0.0122472278227399 -0.0110935592710389 0.0219735210726002
1652460795537660416 -0.0152877761957200 0.0032776048545843 0.0939728039627199 -0.0120626597360702 -0.0108508300679267 0.0230193363827725
1652460795545760512 -0.0148011162973933 0.0032997161253677 0.0939306373476604 -0.0118629844376121 -0.0107495275905995 0.0234234698844624
1652460795556050432 -0.0143207472280203 0.0033313101151448 0.0938900476747468 -0.0116043832037683 -0.0106775319995294 0.0237267278569064
1652460795574894592 -0.0133476900559407 0.0034597711694170 0.0937621080258975 -0.0109421609489318 -0.0106223244463345 0.0240173758842761
1652460795587783936 -0.0128625074406446 0.0035848541725765 0.0935802863043640 -0.0105406781820805 -0.0106291473309344 0.0240274499488437
1652460795594261760 -0.0123830853526605 0.0036852295459221 0.0933502111233907 -0.0100852276221698 -0.0106405900876795 0.0240147229737330
1652460795608015872 -0.0119084373185543 0.0038945182695281 0.0930851026158276 -0.0095610784127051 -0.0106870612013022 0.0238933558717542
1652460795625225472 -0.0114245555876455 0.0041640215407260 0.0927864774071978 -0.0089806878061465 -0.0107628623804064 0.0237133983100848
1652460795638792704 -0.0104617054940668 0.0048313493819458 0.0919110267501441 -0.0077663249234598 -0.0110498528897903 0.0232139421770243
1652460795654246912 -0.0099655349467479 0.0051647770286336 0.0914273028718687 -0.0071595189340770 -0.0112657889024774 0.0229244369374031
1652460795665533696 -0.0094567267235559 0.0054792448847576 0.0909690687474073 -0.0065400713207157 -0.0115179397227737 0.0226267758184058
1652460795673909248 -0.0089399422768559 0.0057921473953022 0.0904876146217961 -0.0059050487200374 -0.0117969038337925 0.0223310747115370
1652460795688441600 -0.0079500048222318 0.0063950444225972 0.0893815478132553 -0.0046459026246102 -0.0124049635231312 0.0217723458509176
1652460795711000064 -0.0064248494689326 0.0070689939326564 0.0879956513000332 -0.0036323508311522 -0.0126566797656506 0.0207737656113409
1652460795728151296 -0.0054532306900872 0.0075142406179415 0.0871318897425574 -0.0025412904979656 -0.0128976857647750 0.0204319375815036
1652460795735391232 -0.0049627044859259 0.0077043910178309 0.0867063435647659 -0.0020656829416424 -0.0129653082516806 0.0202855855658512
1652460795743029504 -0.0044733347330786 0.0078631915776560 0.0862987630576541 -0.0016517107569993 -0.0130136975041821 0.0201522427213804
1652460795752222976 -0.0039861905168326 0.0079946838827430 0.0859033248895693 -0.0013043849904079 -0.0130459239014656 0.0200278602874679
1652460795759215360 -0.0034984615460272 0.0081084660011534 0.0855186330614527 -0.0010250652168169 -0.0130608819165941 0.0199071946929047
1652460795784916224 -0.0025320306482791 0.0082373630352113 0.0848230246462574 -0.0006453956462054 -0.0129706962140083 0.0196416769048871
1652460795809031936 -0.0010441548993172 0.0083654079521780 0.0836827915763664 -0.0005063391269777 -0.0127366285248833 0.0192861320040726
1652460795823584512 -0.0001073234645094 0.0083995355393269 0.0828772957452248 -0.0006033291304094 -0.0124922302881425 0.0190496185434225
1652460795840664576 0.0007317077122920 0.0084126978548634 0.0821465490624052 -0.0006849732822017 -0.0120862137166745 0.0187938783634539
1652460795848922880 0.0011347660104789 0.0084057083013984 0.0818185565262072 -0.0006851970156733 -0.0118232784473186 0.0186714565787296
1652460795865304832 0.0015372772389017 0.0083962258012232 0.0815087067991790 -0.0006487470045587 -0.0115407010891012 0.0185555762415523
1652460795887422720 0.0027540196147929 0.0082172938624515 0.0807553995005270 -0.0002876361704008 -0.0106826124216711 0.0181485648184688
1652460795913093888 0.0039384911175590 0.0078814035874154 0.0802958295186905 0.0002845483857316 -0.0098752066659780 0.0176013670267468
1652460795919875328 0.0043313805313854 0.0077056749853767 0.0801774172717606 0.0004703332376335 -0.0095947923404533 0.0173959501010446
1652460795942902272 0.0054146315015554 0.0070512415980309 0.0800688653887541 0.0008173339436130 -0.0088349008339008 0.0169606311529716
1652460795967560960 0.0060217292689492 0.0066191927560266 0.0801397129677139 0.0008681491159701 -0.0083905051689691 0.0164711474789652
1652460795984790016 0.0067357175713144 0.0061000999217712 0.0802665573729575 0.0007580741008270 -0.0079665373850657 0.0160160339569468
1652460795991938560 0.0070694789061817 0.0057384238848588 0.0803186431329555 0.0004421586777897 -0.0066178446448228 0.0147891683216742
1652460795999138048 0.0074250235600694 0.0054154783200340 0.0803934755072754 0.0002576485532788 -0.0064126727934662 0.0146436953956227
1652460796014099968 0.0077681456140670 0.0050731030066859 0.0805291098257283 0.0000178136133934 -0.0062194020511396 0.0145272974077331
1652460796031322624 0.0084673300616371 0.0044068249648858 0.0809766309565907 -0.0006065912477138 -0.0058685834737783 0.0143474700673632
1652460796038972160 0.0087872507124129 0.0040786702108003 0.0812020110819203 -0.0010033702328411 -0.0057153104665584 0.0142738605827731
1652460796048171776 0.0090626029656520 0.0037382841107604 0.0814425560972948 -0.0014648797599910 -0.0055743532549977 0.0142048750891678
1652460796074072320 0.0094626036909333 0.0030608619070993 0.0820130280793693 -0.0025240626751677 -0.0052838639159130 0.0140387067887752
1652460796089894400 0.0097806313463664 0.0024243440168637 0.0826125911792051 -0.0036502485364211 -0.0049134310810258 0.0137684767092441
1652460796105872128 0.0099623250520614 0.0017355371522155 0.0831928305799841 -0.0048018412503216 -0.0043532701241224 0.0133604585466165
1652460796152058112 0.0098554641525717 0.0001374177976074 0.0850814717651479 -0.0075246309444461 -0.0028011893358689 0.0118257087133181
1652460796160216576 0.0097147726060351 -0.0001078142268536 0.0854726329888171 -0.0080473687618450 -0.0026264196816803 0.0115008229842256
1652460796175233536 0.0093899084702907 -0.0005513377014762 0.0862029614427510 -0.0089523948871061 -0.0023311346853925 0.0109261578638169
1652460796184495872 0.0092266403593501 -0.0007461274132978 0.0865666027533614 -0.0093224782728424 -0.0021952024368369 0.0106807796408169
1652460796198309120 0.0090604146339534 -0.0009157409297988 0.0869426473919118 -0.0096375286082719 -0.0020770703802221 0.0104703832927338
1652460796209959680 0.0088766010097676 -0.0010641583805865 0.0873138537016411 -0.0098896800860366 -0.0019861754815375 0.0103038980465188
1652460796223106560 0.0086214675929429 -0.0013568012941903 0.0881274886750478 -0.0101211486144802 -0.0018654676274583 0.0101239936173266
1652460796231320064 0.0085042385065864 -0.0015101941495971 0.0885189402779853 -0.0100832511775615 -0.0018126457778914 0.0101137033231664
1652460796245318656 0.0083654275655114 -0.0016418745460889 0.0888706618396258 -0.0099598059399405 -0.0017587558954006 0.0101540068878138
1652460796264372224 0.0080609131819351 -0.0018796360620372 0.0894665148872400 -0.0094894776159912 -0.0016534014434929 0.0103656313425497
1652460796271874304 0.0079229218174441 -0.0020541259798103 0.0897888671833062 -0.0091596333067763 -0.0015694670923159 0.0105202527373033
1652460796296366336 0.0076303703749809 -0.0021904596387166 0.0903668759809041 -0.0082978091058084 -0.0014908146368512 0.0109101220457926
1652460796322913536 0.0071808403322432 -0.0021605447775229 0.0911137850226478 -0.0068634329665719 -0.0014428748026730 0.0115321721022355
1652460796334886912 0.0068927494649897 -0.0020358039650276 0.0915027569424044 -0.0058321361242016 -0.0014183026844745 0.0118816425099542
1652460796344910080 0.0067560856167178 -0.0019799183938339 0.0916530503455996 -0.0053281214870745 -0.0014371720644026 0.0120287036475098
1652460796361828096 0.0065073394067841 -0.0018190660906544 0.0918717653580347 -0.0043869190176361 -0.0015529193528595 0.0122641010260817
1652460796375483392 0.0063072569516112 -0.0015403769304411 0.0919488715043874 -0.0035280925195375 -0.0017001786274956 0.0124049452917225
1652460796383586304 0.0061963748850051 -0.0013589004117982 0.0919267046897538 -0.0031344583100729 -0.0017743785653707 0.0124323672343355
1652460796391447296 0.0060925084881205 -0.0011639927101697 0.0918992829859878 -0.0027725120650865 -0.0018632016294439 0.0124264764111467
1652460796399241216 0.0059891602148295 -0.0010252621565451 0.0918829861773034 -0.0024575820502670 -0.0019540484595282 0.0123782471304421
1652460796431284480 0.0053404681696443 -0.0001769077967529 0.0915183638786544 -0.0014194618735208 -0.0027609180376000 0.0118240479777838
1652460796440364288 0.0051561309160995 0.0000509537705790 0.0913494229062159 -0.0012240096021929 -0.0030004380640032 0.0116088957811038
1652460796448090112 0.0049849993887167 0.0002681013734791 0.0911694258209003 -0.0010461705393604 -0.0032360388006645 0.0113761813051526
1652460796455278592 0.0048125825419199 0.0004782719534192 0.0909718257085351 -0.0008746204865941 -0.0034553881798471 0.0111347539400931
1652460796463816192 0.0046426538722523 0.0006929014257879 0.0907467232846460 -0.0006963688489151 -0.0036493597830395 0.0108915386601931
1652460796479066112 0.0043418923452287 0.0011690037758667 0.0902498803883279 -0.0002876882902700 -0.0039672657443869 0.0104149268960454
1652460796487545600 0.0042182608915519 0.0014329063194652 0.0899942301985184 -0.0000530774447926 -0.0041070534696943 0.0101963285076627
1652460796496386048 0.0041069206636617 0.0017035295114090 0.0897305890459104 0.0002028595336314 -0.0042401800120032 0.0100075560873962
1652460796511963904 0.0038594591779454 0.0022107476591398 0.0892349792091334 0.0007811627604599 -0.0044838841297234 0.0097499404728202
1652460796523766016 0.0037462601100113 0.0024266478293335 0.0889977096363897 0.0010988895261917 -0.0046024981456095 0.0096751403470397
1652460796567565568 0.0033854101619647 0.0031249466659233 0.0878332143114107 0.0024451510862022 -0.0052299215645924 0.0094683257314977
1652460796580589568 0.0033037350829569 0.0033471319339286 0.0874815077278142 0.0027767007598120 -0.0054081476005888 0.0094009434546724
1652460796583595776 0.0032524718864771 0.0035601810866656 0.0871612597448913 0.0030863492217586 -0.0055838158400528 0.0093215662305590
1652460796607607296 0.0031930973206610 0.0036975811650347 0.0868540418848897 0.0032500094404965 -0.0057882115145948 0.0095092183092161
1652460796629134848 0.0029857318415048 0.0040392040464589 0.0861368580368177 0.0036810290638831 -0.0060950487795932 0.0092852835205763
1652460796648588032 0.0027149562115225 0.0043640567207046 0.0854420593748662 0.0040048540979698 -0.0062833338198127 0.0089727450193348
1652460796665712128 0.0025037305079431 0.0045947304141685 0.0848780759194060 0.0043888391549824 -0.0062818389839855 0.0085959737187178
1652460796677046784 0.0023928521181517 0.0046869321853801 0.0846052444929407 0.0045940009268119 -0.0062432029336155 0.0083956060208331
1652460796694743296 0.0020505373759911 0.0048430514773633 0.0840495144007887 0.0049380755326635 -0.0061825710885335 0.0079567100855802
1652460796707190272 0.0018724557218388 0.0049111456569363 0.0838175799136433 0.0050711456001320 -0.0061514996571021 0.0077044064769524
1652460796719232256 0.0016794339215190 0.0049595665122045 0.0836267374893687 0.0046509926579304 -0.0068444631049948 0.0095715350271168
1652460796732151808 0.0014857889595182 0.0050038879043883 0.0834077462767954 0.0047064274407445 -0.0067779591641827 0.0092558623347027
1652460796735607040 0.0012753734307135 0.0050143996316594 0.0831789486030915 0.0046978429421747 -0.0066968984412163 0.0089061062388550
1652460796760322048 0.0007743278579841 0.0050323637797504 0.0827716010244959 0.0042748343688908 -0.0063718881735955 0.0076843836754393
1652460796774994176 0.0005173276900393 0.0050711050688709 0.0825779962369675 0.0037363212395874 -0.0060641996967141 0.0067741853846560
1652460796782822656 0.0004028461878472 0.0050741097003791 0.0824861674415408 0.0034115862826456 -0.0058871978863511 0.0062982445166406
1652460796792928768 0.0002816535319419 0.0050850805871748 0.0823743825295640 0.0030636869451524 -0.0056956021911464 0.0058018978480361
1652460796807982336 0.0001704481493632 0.0051227790699669 0.0822277606800670 0.0027166821157569 -0.0054810536755014 0.0052671025873918
1652460796820219904 0.0001190534303626 0.0051859825220763 0.0820822396347053 0.0024134684226275 -0.0052303353379381 0.0046673881648468
1652460796839493376 0.0001016542570977 0.0052585261153537 0.0819167786405668 0.0022053162520768 -0.0049336385020816 0.0039804143007727
1652460796855714304 0.0000891305550082 0.0053360551558476 0.0817097958651135 0.0021326741108084 -0.0045889419397395 0.0031954338178179
1652460796882232064 0.0001527682581423 0.0055590141472128 0.0813694697679041 0.0024499358797790 -0.0036375891645993 0.0012194770790059
1652460796892599808 0.0002446106140060 0.0056923490631479 0.0812324922325211 0.0028497886081658 -0.0031634914710684 0.0000923377771601
1652460796905022464 0.0003551744325946 0.0058195996639020 0.0810946878049995 0.0034090905991022 -0.0026437418305918 -0.0011633387901194
1652460796910994688 0.0005082396071701 0.0059487655622894 0.0809765953821618 0.0041309325129830 -0.0020705236862276 -0.0025342061896216
1652460796923229440 0.0007116973538752 0.0060778004805729 0.0808990769737900 0.0050104270477549 -0.0014415389986793 -0.0039966719110002
1652460796932596992 0.0009152732883565 0.0061952240150753 0.0808210637621075 0.0060269766500505 -0.0007697509486603 -0.0055276633170553
1652460796945029632 0.0011089446287629 0.0062864038375535 0.0807486554312839 0.0071450511287507 -0.0000840521119914 -0.0071089339421427
1652460796952276224 0.0012747255226319 0.0063383185954019 0.0806698403419007 0.0083207981551701 0.0005815668460642 -0.0087235827396684
1652460796982522880 0.0014861007205709 0.0063671296891232 0.0806077524680132 0.0095144636893079 0.0012021450044477 -0.0103550616386422
1652460796991237120 0.0018035026832479 0.0063861058656352 0.0805737364258014 0.0106951606200872 0.0017643141440933 -0.0119888820403347
1652460797003110656 0.0021878772671313 0.0064057549378759 0.0805356183774427 0.0118353319100486 0.0022593347877687 -0.0136112046617253
1652460797024445184 0.0029454325131992 0.0064166293087805 0.0804989896774170 0.0139507032923247 0.0030693195673700 -0.0168555086851796
1652460797038130688 0.0033206905987717 0.0064269455910781 0.0804691218688944 0.0148145797270015 0.0033120949592063 -0.0183383782298142
1652460797055172352 0.0037230021581220 0.0064317347432933 0.0804438510663823 0.0155719289627397 0.0034700670657646 -0.0197465389324949
1652460797068258560 0.0041539509854693 0.0064321961599093 0.0804269596221122 0.0162408994728399 0.0035591412365240 -0.0210732809316694
1652460797093171200 0.0051701694938338 0.0064406796142506 0.0804939326891564 0.0173539641669555 0.0036041941780458 -0.0234684472629578
1652460797105580288 0.0057488217877904 0.0064376201657395 0.0805661855125562 0.0177890571709799 0.0035929800208487 -0.0245336383810900
1652460797122684416 0.0063084676657648 0.0064105409478329 0.0806049944087822 0.0181360645312639 0.0035804622391561 -0.0255083940289714
1652460797134743040 0.0073646052674651 0.0063293580922784 0.0806461180678849 0.0186019378080677 0.0035942361393455 -0.0271748938020501
1652460797144354048 0.0078668621658740 0.0063101134463612 0.0807122707949161 0.0187512839647674 0.0036259356952004 -0.0278612495238625
1652460797151340288 0.0083493864646049 0.0062862233588953 0.0808002904845574 0.0188571410412084 0.0036660757862332 -0.0284509806197286
1652460797171043328 0.0087783417975227 0.0062512024007920 0.0808769952398684 0.0189247495409607 0.0037050727831394 -0.0289507559746510
1652460797181762048 0.0091881706228615 0.0062178421255338 0.0809657194641481 0.0189675636635605 0.0037400981103627 -0.0293684278884830
1652460797193652992 0.0095750967703809 0.0061989665290009 0.0810729591924900 0.0190047592009984 0.0037767700595406 -0.0297081055682713
1652460797203149056 0.0099258656476799 0.0061781009720559 0.0811931437581134 0.0190501385047350 0.0038213304175365 -0.0299693100786917
1652460797223046656 0.0102747040285633 0.0061399506838335 0.0813515967395279 0.0191075865929379 0.0038747082555170 -0.0301513392064293
1652460797233248000 0.0106159991603623 0.0060591152912133 0.0815976279007545 0.0204936091349744 0.0039528638503950 -0.0304875075580281
1652460797238735616 0.0109656908982713 0.0059761921634137 0.0818382811559387 0.0205503718490767 0.0040232101735751 -0.0305269378961341
1652460797248892416 0.0112702029273608 0.0058907443423794 0.0820674540782787 0.0205773885034001 0.0041053194919354 -0.0305083779532773
1652460797261443584 0.0115547408960653 0.0058214420915338 0.0823076605488627 0.0205553263674850 0.0042002082412144 -0.0304404678214556
1652460797273041664 0.0118172760963787 0.0057504184522208 0.0825734694905456 0.0204727459117066 0.0043052160077218 -0.0303344006461775
1652460797281489664 0.0120298311536092 0.0056470118862054 0.0828614141398947 0.0203228755833667 0.0044138940508087 -0.0302052726222170
1652460797295069952 0.0121930765033124 0.0053553438534647 0.0833477674761434 0.0197760159212200 0.0046012140466871 -0.0299220231458231
1652460797313734400 0.0121792994628056 0.0050399333142689 0.0838828945572024 0.0187913911151488 0.0047083384012654 -0.0296207382085181
1652460797319515392 0.0121310440116627 0.0048505765570690 0.0841470709595340 0.0180875712039641 0.0047244513093340 -0.0294709433094970
1652460797333193984 0.0120658646909088 0.0046493766409218 0.0843961812819194 0.0172341890443709 0.0047069482629109 -0.0293299285717723
1652460797345207808 0.0119716708498462 0.0044299679806410 0.0846701294915292 0.0162441662131131 0.0046512287162364 -0.0292022369857864
1652460797363171840 0.0115643180703113 0.0038920228856506 0.0853268823699047 0.0139086681046055 0.0044399703289209 -0.0290084540434558
1652460797368318976 0.0112527146943944 0.0035854990162768 0.0856369537073874 0.0125700310435930 0.0043004647231525 -0.0289466980227283
1652460797383734272 0.0105788670566338 0.0029498818918215 0.0862264967196213 0.0095995328815181 0.0039832934843273 -0.0288509993417497
1652460797393185792 0.0101737729356139 0.0026134406412560 0.0864982653491978 0.0080097832690833 0.0038012117569785 -0.0287951500682784
1652460797401297152 0.0097478073970597 0.0022710253192865 0.0867588354871121 0.0063809595043022 0.0035927060462988 -0.0287251452059339
1652460797417905920 0.0093167475582018 0.0019157300476989 0.0870393518960351 0.0048891919192914 0.0033509758208146 -0.0286682086967382
1652460797431413248 0.0089136035963913 0.0015910184803502 0.0872922883106686 0.0032491052168726 0.0030786197412070 -0.0285538359804044
1652460797442295040 0.0084826582585277 0.0012884057668698 0.0875397622844698 0.0016268016775974 0.0027808230002888 -0.0284101008097013
1652460797463442432 0.0070093035395020 0.0004752835004066 0.0882385668923430 -0.0030476544986009 0.0017927657118753 -0.0277993218940856
1652460797473955072 0.0064865850549413 0.0002266825035118 0.0884009302326041 -0.0045050286256074 0.0014395109445316 -0.0275527847943392
1652460797482636800 0.0059814539356720 -0.0000302927449535 0.0885393290774040 -0.0058875399061075 0.0010730835281484 -0.0272958524483520
1652460797487092992 0.0054863186859748 -0.0003207610336024 0.0886735286273798 -0.0071829778566130 0.0006972676664375 -0.0270285128002886
1652460797504388352 0.0045000747466283 -0.0009343119538360 0.0889742854546373 -0.0094858078022182 -0.0000127665985852 -0.0264399177288579
1652460797510976512 0.0039775904434033 -0.0012350004811836 0.0891380950968768 -0.0083617566478956 -0.0003279714557184 -0.0260542376264990
1652460797526949632 0.0029538376819488 -0.0017258400922833 0.0893649975546776 -0.0099854766753927 -0.0007012338280246 -0.0253427602907578
1652460797543219456 0.0018863354073521 -0.0022359195832065 0.0895154679842514 -0.0110516137613007 -0.0007941000403949 -0.0245979574160479
1652460797550940160 0.0013788972938372 -0.0025267008315424 0.0895760535902092 -0.0113987037748681 -0.0007430094954376 -0.0242099447132667
1652460797562673408 0.0009026640977311 -0.0028223671686901 0.0896372650089923 -0.0116462838192035 -0.0006418480869977 -0.0238046244097133
1652460797575000320 0.0000111257589577 -0.0033719487917191 0.0897382483832207 -0.0119038336330592 -0.0003638774871836 -0.0229555330427764
1652460797583072768 -0.0004348687330479 -0.0036239255092141 0.0897768643869526 -0.0119405472406658 -0.0002161396248564 -0.0225347602504135
1652460797591411200 -0.0008882770687003 -0.0038589201344586 0.0898209394832362 -0.0119361262843286 -0.0000633970807408 -0.0221279927762381
1652460797599118592 -0.0013276642504861 -0.0040789998763150 0.0898625550347577 -0.0119135400089135 0.0001048062562227 -0.0217334056657838
1652460797639960064 -0.0024135495396404 -0.0047870181838193 0.0898650956261055 -0.0120303296426535 0.0006508270736571 -0.0205658599819270
1652460797653194496 -0.0027352873868705 -0.0050382164622320 0.0898231168926195 -0.0121987032457626 0.0007962257257632 -0.0201768445499379
1652460797664872448 -0.0030875899154469 -0.0053050027465146 0.0897194928623875 -0.0124493477053787 0.0009178487608009 -0.0197951293531745
1652460797671769344 -0.0034451362465984 -0.0056005349649443 0.0895625369829476 -0.0127939302302369 0.0010175580375319 -0.0194269336958746
1652460797679404032 -0.0037683591156549 -0.0059246412200386 0.0893880817146563 -0.0132434652035995 0.0010947365498974 -0.0190751401337830
1652460797694500096 -0.0040497129347693 -0.0062666639304867 0.0892221408210448 -0.0138027173842675 0.0011522058341865 -0.0187378949340165
1652460797711173376 -0.0045611321663309 -0.0069647052296161 0.0888512082969133 -0.0152271267322159 0.0012295985310203 -0.0180974714399575
1652460797718976000 -0.0048209148975667 -0.0073124460354931 0.0886089258499398 -0.0160704257928309 0.0012508651684981 -0.0177999620389632
1652460797732468992 -0.0050934898968790 -0.0076595975999024 0.0883325466640157 -0.0169824714953308 0.0012605498037219 -0.0175223413943687
1652460797743715584 -0.0053693713883917 -0.0080036819366144 0.0880289918467431 -0.0179391479253330 0.0012656652711124 -0.0172600606079326
1652460797753946112 -0.0056252148990247 -0.0083377875207425 0.0877143249019563 -0.0189076973643163 0.0012761431097489 -0.0170017871767811
1652460797763175168 -0.0058336075848525 -0.0086649996821916 0.0874392249576764 -0.0198546825176154 0.0013002323603958 -0.0167368817090350
1652460797771097088 -0.0060331915432844 -0.0089834957366968 0.0871896415126382 -0.0207589218179051 0.0013424195911834 -0.0164626900236267
1652460797783836416 -0.0063943389379385 -0.0095618128680493 0.0867328358484471 -0.0224143977215874 0.0014813141974959 -0.0159169460038040
1652460797791801088 -0.0065762671471404 -0.0098472453271369 0.0865345119182330 -0.0228665659782105 0.0014503700651812 -0.0155249076763780
1652460797817113088 -0.0068326403509394 -0.0104855771109102 0.0860067402892940 -0.0248368548650415 0.0016776555246312 -0.0147995095596471
1652460797830300928 -0.0068576271890386 -0.0106530053207966 0.0858400199193568 -0.0253904419744943 0.0017292902680869 -0.0145495719321533
1652460797842054144 -0.0069125988810472 -0.0108491118525719 0.0856169181842361 -0.0258773057707635 0.0017636660477020 -0.0142928748290944
1652460797854578688 -0.0069639492321099 -0.0110728092534167 0.0853817970187454 -0.0262729825902973 0.0017851410198990 -0.0140235339902688
1652460797873550336 -0.0069785897380430 -0.0114960821936210 0.0849926913216792 -0.0266675415400735 0.0018352599688820 -0.0134130671688880
1652460797880978432 -0.0068954415330989 -0.0116825837939908 0.0848655124558292 -0.0266369378725506 0.0018773163294275 -0.0130685304736199
1652460797887521792 -0.0067712975988020 -0.0118817863529511 0.0847733343424567 -0.0264670775757787 0.0019306142011422 -0.0127066626764100
1652460797895381248 -0.0066329794824871 -0.0120879559482259 0.0846911590424570 -0.0261822668889188 0.0019954963563356 -0.0123365599961421
1652460797909673984 -0.0065070878611970 -0.0122780341700801 0.0846057981249694 -0.0258063329409800 0.0020739941381773 -0.0119669510940548
1652460797942380032 -0.0062427688354801 -0.0125257982790141 0.0844196664014288 -0.0248615735927674 0.0022687792065697 -0.0112764033886119
1652460797954204160 -0.0061056854329362 -0.0125815719905816 0.0842963392079163 -0.0243281455601790 0.0023761610578020 -0.0109763501192777
1652460797969174272 -0.0059763877116544 -0.0126337632675676 0.0841874856276191 -0.0235023531856468 0.0020246427433558 -0.0112366602216011
1652460797991604736 -0.0057288213237389 -0.0125477565402062 0.0839204510714017 -0.0223998690119896 0.0021941197119759 -0.0107435918363205
1652460798009056512 -0.0053708374031330 -0.0122904881779114 0.0837521096698789 -0.0213104263024774 0.0022863297597055 -0.0102646327726957
1652460798018746880 -0.0051632930583566 -0.0121378118737246 0.0836696749195219 -0.0207623808310904 0.0023015632439547 -0.0100295401259625
1652460798031330304 -0.0047215395607381 -0.0118131426714551 0.0835473277905593 -0.0196963512370797 0.0023018701546622 -0.0095816479603229
1652460798040133888 -0.0044656699385750 -0.0116336056073438 0.0835446897594865 -0.0192022352184974 0.0023126713673127 -0.0093652069817354
1652460798049675776 -0.0042104113489628 -0.0114439133353423 0.0835827520408356 -0.0187487854257237 0.0023483840177238 -0.0091491760902422
1652460798063886336 -0.0039949469725868 -0.0112515181340695 0.0836574363971968 -0.0183454503222285 0.0024180171034507 -0.0089336900064141
1652460798078985216 -0.0038373773635295 -0.0110426545846970 0.0837304124343175 -0.0180013260216478 0.0025197038922458 -0.0087196735424786
1652460798090398464 -0.0037070842714339 -0.0107959084557344 0.0837624319536211 -0.0177218028158396 0.0026396940895734 -0.0085024228205884
1652460798099933440 -0.0035384595484899 -0.0105217298600823 0.0838281226695156 -0.0173571335614841 0.0027321887502148 -0.0081120945798401
1652460798120577536 -0.0030143463885134 -0.0097953379010565 0.0840431093892673 -0.0170181014226697 0.0030221789153658 -0.0075807624780501
1652460798136228096 -0.0027898939153546 -0.0093934188178362 0.0841423220098492 -0.0168763349202850 0.0032106840536275 -0.0072893855455645
1652460798152357888 -0.0026242587531462 -0.0089915236397239 0.0842432686398591 -0.0165969032286970 0.0033829527335039 -0.0069109813956704
1652460798165408768 -0.0024605046562672 -0.0085274888387803 0.0843294249849719 -0.0164837991161058 0.0036326180865254 -0.0066225685380059
1652460798187281920 -0.0022768539825500 -0.0080403611369881 0.0844199712612298 -0.0163820952908587 0.0039079230302021 -0.0063392698939460
1652460798206272000 -0.0020890782614586 -0.0075387164978285 0.0845010877013083 -0.0162819871655824 0.0042146007824393 -0.0060529675243950
1652460798218116864 -0.0019102957915792 -0.0070410875046064 0.0845836590767638 -0.0161732881550319 0.0045607687029536 -0.0057531628928155
1652460798235997184 -0.0016223258380763 -0.0061391232153487 0.0848474707887994 -0.0158311576153752 0.0053100388913969 -0.0050234121831652
1652460798248045056 -0.0013812387489674 -0.0052711323545496 0.0851045329697560 -0.0157506464698519 0.0060849932046395 -0.0042900382962312
1652460798258273280 -0.0012993359689975 -0.0048860860232236 0.0852043292458510 -0.0157748976396713 0.0064178448407253 -0.0039221593034991
1652460798267247616 -0.0012639108833920 -0.0045550285331532 0.0852952004525455 -0.0158352470308053 0.0067038725219666 -0.0035662350625864
1652460798273385984 -0.0012754751667327 -0.0042664632141928 0.0853832342911089 -0.0159242925508585 0.0069432609181326 -0.0032258981091417
1652460798286985216 -0.0013105098571373 -0.0040167483398035 0.0854663673895800 -0.0160374904570989 0.0071370837092301 -0.0028996123279826
1652460798303330304 -0.0014437405282577 -0.0036125273347412 0.0855294619363152 -0.0163245380852386 0.0073952941234981 -0.0022624137701085
1652460798313224704 -0.0014617055090605 -0.0034512301956831 0.0855877592690238 -0.0164820201244966 0.0074731561133684 -0.0019356400116814
1652460798318977024 -0.0014583390124156 -0.0033296651924481 0.0856674987423340 -0.0166383810772313 0.0075298067177989 -0.0016014041704034
1652460798337313536 -0.0014995436783445 -0.0032047387334508 0.0857563934589624 -0.0169367301233599 0.0076073922322644 -0.0009539527150187
1652460798355828992 -0.0016286941515899 -0.0031489862954414 0.0857883868893830 -0.0171890228113927 0.0076690770628728 -0.0004000672023839
1652460798374755840 -0.0018413722213552 -0.0031907682121447 0.0857812606505643 -0.0173620721990733 0.0077826516970713 0.0000763256286098
1652460798388142592 -0.0019142295230591 -0.0032547893736596 0.0858209774902105 -0.0173951717143470 0.0078885389861962 0.0002919461476927
1652460798408149760 -0.0019826138866866 -0.0034268173899113 0.0860137014683964 -0.0163783510153246 0.0085943037048709 0.0006382639051630
1652460798419470848 -0.0020283123668308 -0.0034833812244395 0.0860892746596423 -0.0163013142398103 0.0087571839981866 0.0007714163458518
1652460798432250624 -0.0020939796950936 -0.0035418971200131 0.0861548007677893 -0.0162156800017751 0.0089001767788271 0.0008667003726053
1652460798443689472 -0.0021724848359202 -0.0036168619572987 0.0862282573764881 -0.0161438211630155 0.0090058581926135 0.0009247492137623
1652460798456893952 -0.0022531099000584 -0.0037106232200397 0.0863107727032738 -0.0161041535700807 0.0090676448464919 0.0009484808478062
1652460798463954432 -0.0023473909621355 -0.0038217895455235 0.0863817704374983 -0.0161056454872151 0.0090883324077775 0.0009421059698328
1652460798471770624 -0.0024827141873292 -0.0039746994246909 0.0864247176473562 -0.0159561429009183 0.0090134974865458 0.0009732839200660
1652460798491745024 -0.0026412927713924 -0.0042168885846715 0.0864854568395887 -0.0161633532454337 0.0088417246191234 0.0008811425069589
1652460798505679360 -0.0026654017086089 -0.0043264906086996 0.0865303159678114 -0.0163273043364749 0.0086634720055354 0.0008285441990809
1652460798513044480 -0.0027045358092373 -0.0044350550838660 0.0865489469060284 -0.0165348535111964 0.0084136486198784 0.0007723847270905
1652460798520871680 -0.0027733339635818 -0.0045411262094926 0.0865300167820258 -0.0167865196322222 0.0081011266613046 0.0007156249045197
1652460798533085184 -0.0028355183842026 -0.0046412032716349 0.0865090677548439 -0.0170775353340601 0.0077473928912384 0.0006648595352473
1652460798568299264 -0.0029835419809690 -0.0048332338156151 0.0864600761774976 -0.0175982354674053 0.0069575925915985 0.0006397960775004
1652460798576654592 -0.0030905129030718 -0.0048800095456435 0.0863905644775639 -0.0179507761254534 0.0065823518565639 0.0006227969744366
1652460798593135616 -0.0033608532171919 -0.0048842463654399 0.0861899670010368 -0.0186181887925557 0.0058782840917871 0.0006083820814917
1652460798617038336 -0.0035382666263965 -0.0048203176377078 0.0859853786867225 -0.0190308417824602 0.0052360701695761 0.0006244970552634
1652460798636354816 -0.0035696774623330 -0.0047745223274778 0.0859060885692415 -0.0192038642663327 0.0049696180051469 0.0006100401874640
1652460798655535104 -0.0036541137799530 -0.0046698335559274 0.0858144512909804 -0.0193528544522465 0.0045869085259325 0.0005552116940914
1652460798665435136 -0.0037308437510599 -0.0046024118094481 0.0857180872537708 -0.0193725624416082 0.0044803387853237 0.0005105211611471
1652460798670808576 -0.0038055984044874 -0.0045323877865817 0.0855840881083737 -0.0193863387336025 0.0044166996959394 0.0004525832914061
1652460798681617664 -0.0038738824708077 -0.0044617506556034 0.0854630961263791 -0.0194046540088893 0.0043809988801872 0.0003815789261978
1652460798698421760 -0.0039980538711618 -0.0042680081665451 0.0853246819506835 -0.0194749434926539 0.0043443681758790 0.0002038023286037
1652460798707777280 -0.0040123669918528 -0.0041367634420319 0.0852794798886248 -0.0195289025205947 0.0043274167766266 0.0001058687099495
1652460798711241472 -0.0040124492348536 -0.0040015670383728 0.0852303374360378 -0.0195896454248145 0.0043061715258823 0.0000132694128208
1652460798728513536 -0.0040458734959413 -0.0037573929157402 0.0851190373273329 -0.0196989919431492 0.0042440469127235 -0.0001348235915878
1652460798741045760 -0.0040611619550982 -0.0036704034472978 0.0850684489872984 -0.0196334779549278 0.0041855693474037 -0.0001686921308990
1652460798765536512 -0.0041265392113989 -0.0034100434228522 0.0849127301608708 -0.0196243686055733 0.0040830501749994 -0.0002287573021094
1652460798782725888 -0.0042100133693419 -0.0030586084360919 0.0848378485756962 -0.0194371110915346 0.0039437540346017 -0.0001931489489943
1652460798801004800 -0.0041734853577498 -0.0026477076583916 0.0849261348683646 -0.0189439391254584 0.0038121951907287 -0.0000636958993980
1652460798813548544 -0.0041318532861755 -0.0024537167576702 0.0849989203613833 -0.0185781097890412 0.0037527648219565 0.0000157629787014
1652460798831599872 -0.0041133199958025 -0.0022581658055447 0.0850366812380531 -0.0181503379737766 0.0036814147618788 0.0000917369779477
1652460798845509632 -0.0040866400352998 -0.0020459605628426 0.0850827125285265 -0.0176781136163046 0.0035868795102973 0.0001608190938189
1652460798862844416 -0.0039212703975653 -0.0016072709959965 0.0852607215820651 -0.0166621247119243 0.0033174374171610 0.0002854313198804
1652460798878652160 -0.0037304387047098 -0.0012353423682465 0.0853768696801694 -0.0156276208404520 0.0029373972284813 0.0003704119337887
1652460798891988992 -0.0036530484495669 -0.0010676167194183 0.0854111430184833 -0.0151382061814966 0.0027042692757898 0.0003820401068957
1652460798911388416 -0.0035170417211157 -0.0007821221133005 0.0855367864684063 -0.0142486990524021 0.0022125277469795 0.0003468351801635
1652460798924136192 -0.0034662063395309 -0.0007015015200177 0.0856391538866978 -0.0136414740846420 0.0023104394059397 0.0011022479037589
1652460798949643776 -0.0032891420387244 -0.0004824137830220 0.0858622899875681 -0.0128511061323405 0.0019315888783171 0.0009842983739435
1652460798961677056 -0.0031928243456517 -0.0003762685344114 0.0860058768008364 -0.0125031345580342 0.0017454773349408 0.0009069786222887
1652460798984582144 -0.0029728602184575 -0.0001556502764938 0.0863516728374508 -0.0117648402311534 0.0010596606161468 0.0006523489924266
1652460799000214528 -0.0028079751139185 0.0000304570513695 0.0864636067363474 -0.0114657833908202 0.0005883623243522 0.0005759817725250
1652460799010139136 -0.0027105617970704 0.0001636244162645 0.0865078848506882 -0.0113261585342282 0.0003770695036537 0.0005862924182830
1652460799023682304 -0.0026354434397636 0.0002866101823908 0.0865463386478536 -0.0104939322127175 0.0006106803234327 0.0027106098899642
1652460799040947456 -0.0024163259524903 0.0005890637129614 0.0866898261767198 -0.0101384044955394 0.0001499156587397 0.0028280784569277
1652460799057673728 -0.0023183337507071 0.0007533836683336 0.0867349563205821 -0.0099447255501282 -0.0001197944842824 0.0028842544837212
1652460799069896192 -0.0022245646268288 0.0009152884991004 0.0867552014826487 -0.0097369259473132 -0.0004133267459832 0.0029338882294314
1652460799081112576 -0.0021190418620490 0.0010777770332579 0.0867759355122156 -0.0095004083403958 -0.0007259844898099 0.0029751108533616
1652460799092910080 -0.0019836249597034 0.0012551300539847 0.0868313567507794 -0.0092270602588145 -0.0010597209917229 0.0030040797899741
1652460799105622784 -0.0018443429958980 0.0014198618584628 0.0869268620796710 -0.0088274797921713 -0.0015238541356354 0.0031239003428636
1652460799118639872 -0.0015733519785993 0.0017858558758336 0.0871424098562010 -0.0082046209849642 -0.0023357284765519 0.0031007403963914
1652460799134594816 -0.0014394678199505 0.0019936615368120 0.0872457850598513 -0.0079102619203401 -0.0027654601209123 0.0030636099519974
1652460799155310080 -0.0013212316673876 0.0022043973005114 0.0873527633470180 -0.0075542521836260 -0.0032675245182164 0.0030896836168500
1652460799177908224 -0.0010561853270712 0.0027385841714343 0.0875778577054777 -0.0070774336650403 -0.0041166985812617 0.0028175763655212
1652460799184061952 -0.0009132408883154 0.0030277370054669 0.0876573110983107 -0.0069176679008849 -0.0045363490642536 0.0025685408598024
1652460799199235072 -0.0005790822144761 0.0035545165756106 0.0878078715792772 -0.0068648949457663 -0.0053593243527664 0.0017963399048442
1652460799207825152 -0.0004292317409171 0.0037934716439339 0.0879283310644112 -0.0069921911623402 -0.0057741976081016 0.0012485065077850
1652460799222861056 -0.0001991127329004 0.0042780577627001 0.0881684345947930 -0.0075635217541898 -0.0066773137452079 -0.0002300305676681
1652460799230857216 -0.0001055422085649 0.0045186086411031 0.0882252159397273 -0.0079382377545950 -0.0072308122194031 -0.0010772828604456
1652460799248081152 0.0001088047116005 0.0050090945630118 0.0883412862843151 -0.0090504990698979 -0.0083061676430390 -0.0031811364466967
1652460799268370432 0.0002927702705934 0.0054131597092745 0.0885060311072220 -0.0103142713391751 -0.0094316559817736 -0.0055218091986511
1652460799281618688 0.0004466304743184 0.0058311103613789 0.0886071515438184 -0.0115527198220695 -0.0104916616166337 -0.0080151303182484
1652460799287142912 0.0005011305758744 0.0060522471914966 0.0886695677074810 -0.0121293153511008 -0.0109486129973128 -0.0092766573216937
1652460799296646656 0.0005508814178667 0.0062551111288998 0.0887379187686621 -0.0126770413503872 -0.0113425839372183 -0.0105186945681367
1652460799303756544 0.0006070231188381 0.0064428365338777 0.0887887889295209 -0.0132021353016426 -0.0116730687187313 -0.0117221674637521
1652460799321060096 0.0006828086271907 0.0068256016678248 0.0888271644644514 -0.0141985897932732 -0.0121467808891837 -0.0139491765141567
1652460799330113024 0.0006577615512573 0.0069838839624710 0.0888325832423194 -0.0146158715908773 -0.0123200025859051 -0.0148841967379940
1652460799351293440 0.0006427736146279 0.0073115658369851 0.0888550692370976 -0.0159308299853779 -0.0122773993184967 -0.0173937585058316
1652460799363128832 0.0006416918353309 0.0073508341023835 0.0888608458416902 -0.0163355986984489 -0.0121654669080654 -0.0180819329983205
1652460799380050176 0.0006227060899079 0.0073689894806538 0.0888351513697247 -0.0167232419923301 -0.0120422880561609 -0.0186959508340009
1652460799394137600 0.0006221677788215 0.0073907135016777 0.0887967664507387 -0.0170973274844094 -0.0119217259226203 -0.0192344428815954
1652460799400896000 0.0006518337333565 0.0074326327166367 0.0887767515420223 -0.0174597655792364 -0.0118067841026648 -0.0196995475827353
1652460799415314176 0.0006904459564354 0.0075330795313570 0.0887201661114685 -0.0181331484381886 -0.0115984568262103 -0.0204352223732505
1652460799422521088 0.0007180401857359 0.0075513671636592 0.0886619834568747 -0.0183710957322520 -0.0115502356250323 -0.0206647808104396
1652460799448681472 0.0007550259900912 0.0075639797983066 0.0884519615178816 -0.0187768064410879 -0.0114653219222229 -0.0210699714922134
1652460799459415040 0.0007042572827789 0.0075121916767310 0.0883309954606337 -0.0188968468629211 -0.0114471442218050 -0.0211848605596081
1652460799471282432 0.0006335225998515 0.0073481534041420 0.0882464177197718 -0.0189700951124065 -0.0114194092532295 -0.0212483432941914
1652460799480540928 0.0006017438101484 0.0072486571843242 0.0882040376292355 -0.0189213104928868 -0.0114032766083174 -0.0212139711885406
1652460799489790976 0.0005951744793478 0.0071432482736970 0.0881511271583368 -0.0188155957348434 -0.0113819150146686 -0.0211445143711807
1652460799495277056 0.0005829163192000 0.0070192383354446 0.0880940135312363 -0.0186129331523332 -0.0113781362695159 -0.0209924084374722
1652460799518578176 0.0005136002847702 0.0066446376864270 0.0879058253671817 -0.0178137177660520 -0.0112957089146798 -0.0204908126985366
1652460799535380224 0.0004988176467534 0.0065323854091740 0.0878529644691658 -0.0174535484826971 -0.0112823127362012 -0.0202861088713301
1652460799552522240 0.0004463362292125 0.0064296861938568 0.0877859168480362 -0.0170576701692651 -0.0112772566546292 -0.0200724512451429
1652460799566495488 0.0003047586454758 0.0061821955110760 0.0876163023938178 -0.0161752605176625 -0.0113169983164986 -0.0195695120633535
1652460799590531072 0.0001724213543164 0.0059821873241189 0.0873110589588476 -0.0149160844570846 -0.0113994077366538 -0.0187521474232469
1652460799617528064 0.0001895009722435 0.0059697226629215 0.0872383029688549 -0.0144940600231194 -0.0114034733573105 -0.0184606245477909
1652460799628680704 0.0002136581322680 0.0059787920607643 0.0871725540029918 -0.0140698527966893 -0.0113742102453959 -0.0181676572902427
1652460799647396352 0.0001873653979571 0.0059907516590087 0.0870248744238696 -0.0132311885024381 -0.0112021050129827 -0.0175787809596115
1652460799655132672 0.0001540028847995 0.0059739950924708 0.0869803674471620 -0.0127997428744369 -0.0110525359666187 -0.0172785045345333
1652460799672420608 0.0001302752871067 0.0059631108547244 0.0869861512458245 -0.0123431392125409 -0.0108493297872929 -0.0169699960139370
1652460799685481728 0.0001284538725665 0.0059727516275339 0.0870238662454179 -0.0118658771826565 -0.0105888360495788 -0.0166551424874037
1652460799696289536 0.0001367895272752 0.0059824483937813 0.0870494906622247 -0.0113894635826419 -0.0102786142484909 -0.0163410284371381
1652460799712583936 0.0001547329347837 0.0059812118865563 0.0870485308329522 -0.0109355695897003 -0.0099306267588421 -0.0160361930485392
1652460799725218304 0.0001742156645071 0.0059830908805417 0.0870284845849135 -0.0105085660487159 -0.0095510103084266 -0.0157490431059107
1652460799736174848 0.0001711640051123 0.0059965648903234 0.0869939006218378 -0.0100966826387364 -0.0091403101658228 -0.0154867022292562
1652460799752361472 0.0001637497284394 0.0060418620394655 0.0869309073129029 -0.0087561663151921 -0.0093125960888822 -0.0132335061903532
1652460799775163648 0.0001834520701173 0.0060573618958980 0.0869389267063459 -0.0083172318068348 -0.0088579714341963 -0.0130176676403859
1652460799798717952 0.0002129790340470 0.0061260188173429 0.0870115924930518 -0.0069535992087398 -0.0076562872790401 -0.0122999023546332
1652460799807490048 0.0002474772686013 0.0061778313961127 0.0870561834307521 -0.0064943998636325 -0.0073246215941376 -0.0120313909765151
1652460799815102720 0.0002333801339996 0.0062327507376398 0.0870931577783387 -0.0060250224979412 -0.0070063126705776 -0.0117611532422938
1652460799825577472 0.0001682344272327 0.0062710750245668 0.0871346000915035 -0.0055541030573451 -0.0066839101271002 -0.0115048438161590
1652460799832568320 0.0000983968633007 0.0062815906685624 0.0871736198129148 -0.0050928068621870 -0.0063479213478836 -0.0112799486552634
1652460799847673600 0.0000405573790713 0.0062944384600107 0.0871592969553929 -0.0042173835985749 -0.0056534085760612 -0.0109947930289073
1652460799855181824 -0.0000164199050912 0.0063294140721530 0.0871266741347353 -0.0038178479256277 -0.0053147717357948 -0.0109659392248789
1652460799864228608 -0.0000958922753178 0.0063749973684217 0.0870925686146908 -0.0015082528885326 -0.0052752975267294 -0.0088129150228529
1652460799881969408 -0.0002001074522529 0.0063612276580486 0.0870359453865734 -0.0009214980504157 -0.0046695863120796 -0.0092659861188734
1652460799896753152 -0.0002468697728315 0.0063596465476700 0.0869677059198553 -0.0005513555069214 -0.0040601875976233 -0.0101373043872277
1652460799904823296 -0.0002644699271238 0.0063787614958383 0.0869473279122819 -0.0004509983702956 -0.0037241282474905 -0.0107099445372067
1652460799913950720 -0.0002773595123909 0.0063986626473105 0.0869315631354163 -0.0003776651081590 -0.0033610900202417 -0.0113596428850225
1652460799927443200 -0.0003316893178979 0.0064392380174294 0.0869106023890794 -0.0002193371661028 -0.0025398212623432 -0.0128248643914030
1652460799936976128 -0.0003660113121293 0.0064590507116840 0.0869109565539010 -0.0001142162097003 -0.0020626895426274 -0.0136031188032844
1652460799945907456 -0.0003878629251322 0.0064935164407926 0.0869010208494869 0.0000981970075108 -0.0016274410959926 -0.0143085303700291
1652460799975596544 -0.0004151722197401 0.0064867623597430 0.0869223686920915 0.0002349386949226 -0.0010499171161695 -0.0150864165476171
1652460799985215488 -0.0004724904970141 0.0064010467026337 0.0869769973426922 0.0003511851285597 -0.0004434479174924 -0.0158601057472218
1652460800007812352 -0.0007250048876979 0.0059662069983479 0.0870853488495466 0.0003520467936811 0.0007788454524078 -0.0174443959995773
1652460800022588160 -0.0011076627951411 0.0052509301634215 0.0872063760427004 -0.0001387427418522 0.0019092582447790 -0.0190060311575351
1652460800039173632 -0.0014409270190900 0.0047461832153420 0.0872403729460668 -0.0006868683565350 0.0025022899137702 -0.0197850200541218
1652460800058945792 -0.0024249476460201 0.0035090637280204 0.0871423149035380 -0.0024261605258488 0.0037224461664703 -0.0211588828223226
1652460800063001344 -0.0029838109317997 0.0027766834392921 0.0870484158206194 -0.0035981365502633 0.0043757161717649 -0.0217208851818709
1652460800077663744 -0.0035368906501916 0.0019862725994967 0.0869655736921263 -0.0049344330853656 0.0050800211181161 -0.0221895998077912
1652460800095168256 -0.0046297171900568 0.0002698364507535 0.0868606794842775 -0.0079942616131215 0.0066440999637194 -0.0228539017549567
1652460800109341440 -0.0052498568600166 -0.0006554215195355 0.0867546454663241 -0.0096925499442094 0.0074673232937846 -0.0230604935261523
1652460800127043072 -0.0066383943008443 -0.0026331550413779 0.0863411425385017 -0.0133599412591499 0.0090839488243915 -0.0232659489551961
1652460800136844544 -0.0073488919614586 -0.0036533155993675 0.0861003644681064 -0.0152694330104301 0.0098556934307275 -0.0232840351378974
1652460800147782144 -0.0080647933195071 -0.0046445246829500 0.0858618307663685 -0.0157560110555504 0.0108628682124372 -0.0226613390162172
1652460800160098816 -0.0088026418702570 -0.0056160064801241 0.0856209638058256 -0.0176057788826687 0.0115954037638221 -0.0225887511101032
1652460800173381376 -0.0095688193229274 -0.0065862785564221 0.0853615928675585 -0.0193670258074806 0.0123112461204309 -0.0224776169059328
1652460800187447808 -0.0103691663747655 -0.0075725838987406 0.0850844553748541 -0.0210174131379054 0.0130005388925421 -0.0223364870154774
1652460800204233984 -0.0112259625998662 -0.0085775819261310 0.0847800779955395 -0.0225437338797344 0.0136466178936442 -0.0221798528426319
1652460800225847040 -0.0121715250041995 -0.0095780602082085 0.0844021876197652 -0.0238791147225255 0.0142374546997826 -0.0219526451641894
1652460800248471552 -0.0142872257144263 -0.0115802599488111 0.0834494126876834 -0.0262277221572700 0.0151592315396381 -0.0217192591328671
1652460800257160704 -0.0153560337085842 -0.0125444558035371 0.0829453953735507 -0.0272053892844448 0.0154630374975168 -0.0216426711528442
1652460800266099968 -0.0163864487968160 -0.0134428468863141 0.0824786852000129 -0.0280798476359580 0.0156442213312377 -0.0215885389240407
1652460800279033344 -0.0173808927097863 -0.0142559711756855 0.0820386618522074 -0.0288691999076150 0.0157043955918055 -0.0215561244598340
1652460800295145728 -0.0183630559176363 -0.0149997437601222 0.0816076804884213 -0.0295844062804035 0.0156619718385488 -0.0215403251408195
1652460800308064768 -0.0193439418781980 -0.0156916668508687 0.0811960899241127 -0.0302321845510306 0.0155418842856529 -0.0215280098363192
1652460800321973248 -0.0203464306981293 -0.0163450040177931 0.0808154750197186 -0.0308162849005945 0.0153661206836451 -0.0215037383068458
1652460800329126144 -0.0213791008519942 -0.0169635329749095 0.0804579680124206 -0.0313335373734635 0.0151584197172171 -0.0214564733162252
1652460800383466240 -0.0248752846783132 -0.0186819834088671 0.0793968753183152 -0.0322621345726231 0.0146037609892988 -0.0210800661929373
1652460800395505408 -0.0261836413778210 -0.0192163252963429 0.0790535637196497 -0.0323273614079812 0.0144490526426811 -0.0209417459423107
1652460800399505920 -0.0274355356362069 -0.0196967737553400 0.0787211974939642 -0.0322709023971146 0.0142930595322848 -0.0208091699547636
1652460800417064960 -0.0286333785545731 -0.0201121829674436 0.0784008044239673 -0.0320997397635310 0.0141460672727819 -0.0206865147999123
1652460800426790656 -0.0297771008490248 -0.0204598524105809 0.0781295931209460 -0.0318088929825463 0.0140286239997352 -0.0205699379841174
1652460800435161856 -0.0308673668905309 -0.0207587380614690 0.0778954594306412 -0.0313928380104471 0.0139514002241108 -0.0204551573512579
1652460800457379328 -0.0319135357718201 -0.0210205238767345 0.0776872348533012 -0.0308648561263921 0.0139065009299271 -0.0203420444302710
1652460800468700928 -0.0329196760300578 -0.0212240315815276 0.0775036937235099 -0.0302578358223665 0.0138771170234118 -0.0202338336144064
1652460800494345728 -0.0339140739878008 -0.0213536705778040 0.0773108108754389 -0.0294786291201102 0.0139479364864932 -0.0201107164578281
1652460800506854400 -0.0348257348974165 -0.0214117891457042 0.0771316512554271 -0.0288036699414594 0.0139100360007529 -0.0200278827107143
1652460800511165952 -0.0356421321607891 -0.0213944075861426 0.0769627437716659 -0.0281139969424238 0.0138496411562683 -0.0199671698753777
1652460800527487488 -0.0368793780433726 -0.0211309902253435 0.0768450780486439 -0.0266600079775809 0.0136318488277192 -0.0199335966981042
1652460800536050432 -0.0373005886840702 -0.0209189661379590 0.0768905451297614 -0.0258704595219007 0.0134717994852418 -0.0199702963431555
1652460800545246720 -0.0375983321413861 -0.0206747620396519 0.0769693258609753 -0.0250405940845178 0.0132752494933801 -0.0200443804217234
1652460800553876736 -0.0377945483615083 -0.0204013699883264 0.0770683553789353 -0.0241828501534579 0.0130435973638950 -0.0201474455713942
1652460800560509440 -0.0379059390249311 -0.0200884795064581 0.0771765570479268 -0.0232549219162875 0.0128100956918298 -0.0202569370461768
1652460800581011456 -0.0379062910408762 -0.0197496787299981 0.0773147184063015 -0.0223569663019631 0.0125324757680090 -0.0203742522804877
1652460800598710272 -0.0373810495938094 -0.0188603198790592 0.0778034781751638 -0.0204770297754772 0.0119387939964555 -0.0205977065309439
1652460800613074176 -0.0368764768592198 -0.0182813832954674 0.0781282588567172 -0.0194760207643683 0.0116361787744303 -0.0207050033188863
1652460800630973696 -0.0356076746151474 -0.0169761299259853 0.0787302695943790 -0.0173205846987688 0.0110490732345199 -0.0208830997192090
1652460800639442432 -0.0348339642332555 -0.0162881533196995 0.0790726140702589 -0.0161709508697867 0.0107662178785563 -0.0209412044058548
1652460800656577280 -0.0339644479545459 -0.0155858656760666 0.0794853970304465 -0.0149474256362363 0.0104981585837800 -0.0209607523807843
1652460800670254592 -0.0329703517247981 -0.0148662881869746 0.0799727199055273 -0.0137319632429185 0.0102286649523361 -0.0209644961061784
1652460800690246400 -0.0318496333403038 -0.0140754816708893 0.0804851289532764 -0.0124620973710618 0.0099715159854261 -0.0209246193099541
1652460800701401344 -0.0305841003189466 -0.0131855093943231 0.0810015710247340 -0.0111978873955402 0.0097117658975568 -0.0208688282601709
1652460800717253632 -0.0291116365651359 -0.0121900349020058 0.0815558948520969 -0.0099114633122477 0.0094618339505374 -0.0207904531231469
1652460800729313792 -0.0274184047910967 -0.0111115781632696 0.0821565150248697 -0.0086106786343868 0.0092207883943103 -0.0206979470426922
1652460800737570048 -0.0255359936322810 -0.0099818435084649 0.0828057401857829 -0.0073039535607515 0.0089840787711115 -0.0205994404611222
1652460800745915392 -0.0235842059270248 -0.0088383866123691 0.0834745888018448 -0.0059929893084786 0.0087509309577400 -0.0204993558417634
1652460800754266880 -0.0216901971555066 -0.0077184682390798 0.0841193261398102 -0.0046774616581946 0.0085237404667748 -0.0203968606030202
1652460800770228736 -0.0198443702614000 -0.0066191160154403 0.0847338381909150 -0.0033648306836487 0.0083006386157521 -0.0202884440576655
1652460800784075776 -0.0161216858366854 -0.0044350855910025 0.0858613588895978 -0.0008010767321799 0.0078388417315179 -0.0200470538010458
1652460800802265856 -0.0141814133506135 -0.0033338185844105 0.0864121775208038 0.0004414381566028 0.0075973272335010 -0.0199156710908547
1652460800815352576 -0.0101988814116737 -0.0010761588704318 0.0874515651018358 0.0028794025054979 0.0071151256704155 -0.0196395675628714
1652460800826393856 -0.0082818237622927 0.0000314061823451 0.0879101132261887 0.0040698050558491 0.0068731230550588 -0.0194999443302324
1652460800833965312 -0.0064720492498160 0.0010753755323104 0.0883305180882891 0.0052158950601829 0.0066278442250185 -0.0193623148847682
1652460800847872512 -0.0030556064259238 0.0030235467623088 0.0891015559639950 0.0073136570063540 0.0061481812302188 -0.0190931689542126
1652460800861158912 -0.0014210195468591 0.0039497111927500 0.0894513166673167 0.0082636198998299 0.0059177909260331 -0.0189669016023810
1652460800881313536 0.0018069090095537 0.0058190841497470 0.0900307483500606 0.0100216738608844 0.0054633423738154 -0.0187871183024381
1652460800887918592 0.0034730759663036 0.0067783502111203 0.0903108398745667 0.0108573440398480 0.0052453894540567 -0.0187581525714309
1652460800897577216 0.0050875305261082 0.0077250807684774 0.0905540418500298 0.0116663107622314 0.0050371240842114 -0.0187737847240740
1652460800905241600 0.0066283255377379 0.0086394449477372 0.0907570185719418 0.0127100931073131 0.0054071727485215 -0.0186045056501009
1652460800929165568 0.0096081509615904 0.0104470761395678 0.0910773802670800 0.0141428558111690 0.0050044701541554 -0.0187872746705625
1652460800941612544 0.0111007431049005 0.0113379005080734 0.0912536986407799 0.0148207261395522 0.0048064322994156 -0.0189036478738478
1652460800967310592 0.0139383076811365 0.0130892967549419 0.0915704747259400 0.0160717632143942 0.0044052808446203 -0.0191590579772977
1652460800981062656 0.0152273174135599 0.0139537709685737 0.0916596309307258 0.0165943271880368 0.0041794389829236 -0.0192798140730822
1652460800992901888 0.0164056718287818 0.0147750313122397 0.0916908918646670 0.0171352628950728 0.0038206570123030 -0.0193055315302918
1652460800998732032 0.0174758566685005 0.0155112522745470 0.0916957510456616 0.0174974107280403 0.0035566625810661 -0.0193910403205062
1652460801017207296 0.0192608221837225 0.0166945456407603 0.0916712055005443 0.0180006607651069 0.0030024595540726 -0.0195144837553464
1652460801023804416 0.0200021835964485 0.0171475959795856 0.0916735058089270 0.0181193327677226 0.0026926964238996 -0.0195554364814894
1652460801038489856 0.0212387734786235 0.0178122577149671 0.0917280881935500 0.0180743871840333 0.0019627067765403 -0.0195595825763196
1652460801047308800 0.0216942091076710 0.0180631033846263 0.0917314792064022 0.0179233859040376 0.0015449839584047 -0.0194927344241914
1652460801062400512 0.0220358328118408 0.0182771127448184 0.0916965388005329 0.0176977214244856 0.0010961423399590 -0.0193688688298146
1652460801073797888 0.0223124066004079 0.0184506147436230 0.0916671339404130 0.0174633476251264 0.0006467076488194 -0.0191867546979514
1652460801087218432 0.0226874342759511 0.0186725289561684 0.0916061201097528 0.0166915422466621 -0.0003847758443232 -0.0187160983919057
1652460801098981632 0.0227758475508717 0.0187238532244013 0.0914827532231780 0.0162094341802813 -0.0009326400503729 -0.0184426814341109
1652460801112606208 0.0228247608770828 0.0187342789276572 0.0913273211299589 0.0156699476762411 -0.0014967846077112 -0.0181618494818025
1652460801127709696 0.0227732099610983 0.0186314773150493 0.0910667323357517 0.0144347472366825 -0.0026767582421301 -0.0176110007699037
1652460801138302208 0.0226290350827590 0.0185391690788428 0.0908806331067799 0.0137343513213132 -0.0033038158885431 -0.0173380327779017
1652460801143381504 0.0224312934206031 0.0184334052501748 0.0906498953412581 0.0129829780765605 -0.0039599409096591 -0.0170579633292094
1652460801151102208 0.0221951386013050 0.0183211417431962 0.0904241309338127 0.0122006105208522 -0.0046376713935023 -0.0167645139555391
1652460801168278784 0.0216364441939004 0.0180811146531841 0.0899950667682663 0.0106316240081509 -0.0060136229522356 -0.0161151142359907
1652460801177868288 0.0213487766075978 0.0179455427596232 0.0897673816011823 0.0098754808727417 -0.0067012296360132 -0.0157479560396651
1652460801193086208 0.0210790528968355 0.0177687418914483 0.0895579660273309 0.0091511920771807 -0.0073890212345539 -0.0153473698929628
1652460801206942208 0.0204746471488627 0.0172627285284499 0.0891330026022444 0.0078027739263452 -0.0087701602712095 -0.0144625510081347
1652460801214770688 0.0200893442196784 0.0169637550748388 0.0888684206698652 0.0071749236362287 -0.0094572089063609 -0.0139979159683585
1652460801224539904 0.0196684724875619 0.0166481179043979 0.0886099326632939 0.0065889093569889 -0.0101251828350212 -0.0135278131394296
1652460801238753792 0.0187644185190099 0.0160052205465082 0.0881372598408003 0.0055892939443813 -0.0113523436627632 -0.0125658514838418
1652460801247594240 0.0183123082125393 0.0156948848213270 0.0879063065361599 0.0052285430701570 -0.0118753771823846 -0.0120683861300540
1652460801255882752 0.0178550114241525 0.0153801442134180 0.0876724792874785 0.0048776555927834 -0.0123755274370450 -0.0115771293422758
1652460801269835264 0.0173736509287880 0.0150592946821442 0.0874240616642301 0.0045740533300024 -0.0128231730241468 -0.0110942065327385
1652460801286934784 0.0163029791505410 0.0143957102499012 0.0868522070262334 0.0041238446714288 -0.0135322188468984 -0.0101784271909594
1652460801301378048 0.0157756821295600 0.0140430476008526 0.0866080257617177 0.0040083216170875 -0.0137843996029006 -0.0097562152224303
1652460801313662976 0.0152527166854163 0.0136677572083976 0.0864013078275680 0.0039730577991958 -0.0139759089514131 -0.0093603918279200
1652460801324368384 0.0147318494092999 0.0132740877797471 0.0862268954024477 0.0040044513970603 -0.0141210745796006 -0.0089870606057723
1652460801335466496 0.0141622173472552 0.0128670481446443 0.0860207759432710 0.0040838792941221 -0.0142343022679418 -0.0086308311882576
1652460801349836288 0.0135519731570972 0.0124761587293754 0.0857680280490159 0.0052985578387632 -0.0133636925472474 -0.0073687459067652
1652460801366873600 0.0123879313653078 0.0115937695876591 0.0852970393395500 0.0055669322200244 -0.0135167763913098 -0.0067544048853659
1652460801376014592 0.0118011192928634 0.0111277693049965 0.0850812984963892 0.0056844431275465 -0.0135927739139801 -0.0064787122839490
1652460801390746368 0.0112169156960145 0.0106560821407958 0.0848665657846243 0.0057667347754726 -0.0136722369762008 -0.0062148169899522
1652460801405115648 0.0106415444983914 0.0102041677670719 0.0846562253765292 0.0058126301763239 -0.0137482592577690 -0.0059543534723027
1652460801416987392 0.0100795094766653 0.0097834915864872 0.0844724435545961 0.0058339352934404 -0.0138090517252963 -0.0056904621635404
1652460801426013696 0.0095236048025740 0.0094005288840652 0.0843022187069461 0.0059020923433122 -0.0138082876209362 -0.0054323514278448
1652460801447073536 0.0084983491498445 0.0085948518671553 0.0840510448533195 0.0057792967672703 -0.0138945697413790 -0.0049111195749922
1652460801455015936 0.0080197098315230 0.0082060380715748 0.0839438816377127 0.0056157608040983 -0.0139914333835811 -0.0046958827162406
1652460801465679360 0.0076023922115368 0.0078318241543796 0.0838750583212129 0.0053857799838543 -0.0141412478153730 -0.0045363134711564
1652460801475273728 0.0072024481307286 0.0074623601902056 0.0838131515253146 0.0051052936787640 -0.0143359233144096 -0.0044418222265187
1652460801488740352 0.0067845894101850 0.0070975878811057 0.0837720557024850 0.0047868423697504 -0.0145586403135376 -0.0044106178965052
1652460801495235584 0.0063348543130209 0.0067340683550548 0.0837440370813288 0.0044305548775556 -0.0147943721529678 -0.0044330888076893
1652460801505551360 0.0059005600102570 0.0063726434884289 0.0837627508500919 0.0040306611443332 -0.0150325432723227 -0.0044984553828216
1652460801515938560 0.0055011262357764 0.0060058048819680 0.0838287159209676 0.0035860950025949 -0.0152650954127909 -0.0045983681595985
1652460801530135552 0.0051149795154920 0.0056592931573041 0.0838913577701841 0.0031544382674511 -0.0154418878426118 -0.0047350726379561
1652460801544755712 0.0047448113985167 0.0052971782353597 0.0839494062534603 0.0026417996125059 -0.0156471235268144 -0.0048831217512107
1652460801567590144 0.0039777046801645 0.0045589136014186 0.0840602800762302 0.0015886063820923 -0.0160095717049531 -0.0052003026066159
1652460801574990336 0.0036439494004395 0.0041874764156227 0.0841504588481071 0.0010744946873548 -0.0161792311129173 -0.0053507592464363
1652460801584446464 0.0033704304756235 0.0038454007283786 0.0842653635841719 0.0005829326618231 -0.0163536842317294 -0.0054858134061088
1652460801612271360 0.0031095239627735 0.0035281101801124 0.0843686076184571 0.0001218669572607 -0.0165390660589848 -0.0056001112954349
1652460801624201216 0.0028766213854067 0.0032269405820392 0.0844886226501979 -0.0003027719105780 -0.0167374455384039 -0.0056921200545861
1652460801631328000 0.0027000059824901 0.0029343096690641 0.0846485173795514 -0.0006868678663432 -0.0169480346209564 -0.0057648373661020
1652460801648329728 0.0025106139331158 0.0024060180151592 0.0850648889726018 -0.0013196641715545 -0.0173773299369428 -0.0058698398801348
1652460801655382272 0.0024226260306366 0.0021743892449403 0.0852746171843681 -0.0013861437697872 -0.0181352722408658 -0.0071536284839080
1652460801664463616 0.0023376588034556 0.0020050590804495 0.0855209179524049 -0.0015759332745204 -0.0182920246485008 -0.0071671840794800
1652460801673235968 0.0022707127200993 0.0018376971573135 0.0857710712703357 -0.0017162053874992 -0.0184075097052355 -0.0071620389631719
1652460801686974976 0.0022484528495437 0.0015018428403162 0.0862435871450471 -0.0018872883534923 -0.0185345198275180 -0.0071124554878325
1652460801694480384 0.0022531243455230 0.0013575541957285 0.0864549323761961 -0.0019447642819747 -0.0185705524661982 -0.0070705041815323
1652460801703488000 0.0022667769005204 0.0012406052087862 0.0866401855044232 -0.0019979805079019 -0.0186009938798996 -0.0070101934535701
1652460801712372224 0.0023109989110732 0.0011458994643367 0.0868092134303553 -0.0020508618908942 -0.0186241144444244 -0.0069227183508353
1652460801719767296 0.0023949137471369 0.0010551429634178 0.0869837081433261 -0.0021011221494325 -0.0186287347062542 -0.0068005033738334
1652460801735322880 0.0025856919164448 0.0008578816129334 0.0873399785725704 -0.0022893936254285 -0.0184922477295918 -0.0064688830043393
1652460801746042624 0.0026759452255444 0.0008173480832425 0.0875058761757785 -0.0022780287611261 -0.0183640524852846 -0.0062362263791023
1652460801766878976 0.0029467208154097 0.0007378658694249 0.0879599519614390 -0.0020682431314155 -0.0178029454521589 -0.0053523423967504
1652460801774716672 0.0030501634752343 0.0007305347227059 0.0881365667925882 -0.0019720627752898 -0.0175841873505590 -0.0049547973184092
1652460801783065088 0.0032135197986680 0.0007536899555259 0.0884331476727931 -0.0006517441730434 -0.0185355124332444 -0.0043489689274581
1652460801790509056 0.0033599335889814 0.0007942087789384 0.0885864692485776 -0.0005672779447748 -0.0183167184789770 -0.0038067648072998
1652460801814275840 0.0034818184372424 0.0008538266062325 0.0886975965319087 -0.0004919241144221 -0.0181215622443338 -0.0032113103162982
1652460801825490688 0.0036026016496600 0.0009356986031143 0.0888150354109363 -0.0004170370081258 -0.0179494563587817 -0.0025771796424720
1652460801840235264 0.0037265107995165 0.0010357896698494 0.0889535016602525 -0.0003338572626477 -0.0177908445353165 -0.0019120603937550
1652460801884322816 0.0038563250484040 0.0011686589569971 0.0892140943963743 -0.0000397969803818 -0.0175684689418608 -0.0011380312313292
1652460801897953536 0.0039577830483099 0.0013686275091519 0.0894271369753134 0.0000570988235074 -0.0174217839227272 -0.0004097184134037
1652460801917948416 0.0041014115265163 0.0016374547925284 0.0897120926199821 0.0001576068275452 -0.0172741281785396 0.0003567797019175
1652460801935426048 0.0044718352334448 0.0022202655749581 0.0903179009157558 0.0004177493519961 -0.0168287045807898 0.0024690353180425
1652460801975174400 0.0047480567298857 0.0027854694039208 0.0903613234791302 0.0007169529999710 -0.0162639565356924 0.0042280316649515
1652460801984899584 0.0048874608481354 0.0030617316377877 0.0902025125469744 0.0008889699080113 -0.0158724086503819 0.0051326646371910
1652460801990605824 0.0050311546843594 0.0033178202027567 0.0899661658482193 0.0010667778967458 -0.0154081019264876 0.0060539185492068
1652460802008536832 0.0051936146053945 0.0035605214605122 0.0898051505011230 0.0013340434935716 -0.0148300501361451 0.0069946237535033
1652460802020456960 0.0052810028700668 0.0038041941784660 0.0894939127591900 0.0015095179722330 -0.0142310985532826 0.0079392878659249
1652460802033819904 0.0053079340441014 0.0040297416903865 0.0890981919507564 0.0016695106414350 -0.0135668712300672 0.0088899995814392
1652460802047932160 0.0053142513606212 0.0042223707805664 0.0886325419093702 0.0018075054643310 -0.0128365488694531 0.0098446718193500
1652460802061808128 0.0053396395424048 0.0043716956432971 0.0880853062306745 0.0019232561779340 -0.0120378292810071 0.0107989468084755
1652460802074090496 0.0053455685362339 0.0044748951762020 0.0873830725401399 0.0020212542862023 -0.0111675029462806 0.0117454479653229
1652460802079540992 0.0053268919331320 0.0045246223371535 0.0865395208638113 0.0021144250151436 -0.0102236780016124 0.0126743821361693
1652460802095895808 0.0053268794985650 0.0045229149243487 0.0856382196379944 0.0022217446893291 -0.0092101086598934 0.0135738839133360
1652460802113013760 0.0054826248565444 0.0043762783245736 0.0839415593115931 0.0025813105140925 -0.0069878694721631 0.0152490400818172
1652460802128138752 0.0055465801943416 0.0040631361792722 0.0819448933375312 0.0028943029793870 -0.0047022769345323 0.0167103181222473
1652460802135160064 0.0055899570295384 0.0038765568335388 0.0809875980639724 0.0030083783738604 -0.0035686085874038 0.0173594886311478
1652460802147051776 0.0056199692296197 0.0036861721337582 0.0800850975684738 0.0030742491515339 -0.0024616677641859 0.0179534011066265
1652460802158464768 0.0055798502150816 0.0032581916088389 0.0783433688492897 0.0030451120798147 -0.0003442555209776 0.0190021928316747
1652460802167756032 0.0055753878436822 0.0030274576464188 0.0774850726474289 0.0029699231437850 0.0006749501512339 0.0194780740522056
1652460802175253760 0.0055921436478553 0.0028033714433034 0.0766438141745023 0.0028794134825099 0.0016746521300640 0.0199337100140914
1652460802184191232 0.0056054994601592 0.0025900565445784 0.0758378101990754 0.0027928747617378 0.0026576767800965 0.0203747489221133
1652460802197038848 0.0056198270542827 0.0023621320355923 0.0750843219286454 0.0027244874365874 0.0036268611734134 0.0208028917635008
1652460802209487104 0.0056506830823126 0.0021009948383721 0.0743834075159156 0.0026768786473342 0.0045833663928067 0.0212151255624838
1652460802224201728 0.0056793171966153 0.0014686335144935 0.0729874183225946 0.0025861044782207 0.0064211794908089 0.0219666646812773
1652460802232716288 0.0057087963094525 0.0011370459216163 0.0723506563088684 0.0025128625317142 0.0072666833735402 0.0222906473918738
1652460802248094208 0.0057612755354944 0.0004874390363676 0.0713285858252934 0.0023326170666273 0.0087465780994403 0.0228151996133617
1652460802260870400 0.0057726715072642 0.0001891768412667 0.0708359091817824 0.0021740445766578 0.0093303279451813 0.0230118287820573
1652460802273960448 0.0058245892771086 -0.0001014078543960 0.0704094233593908 0.0019952563251292 0.0098231973595452 0.0231715497456295
1652460802288601344 0.0059346545467073 -0.0007050693435539 0.0697162032081375 0.0016078977528640 0.0105850367572164 0.0233785330698784
1652460802295135232 0.0059143780074989 -0.0010198651304434 0.0693683092706416 0.0014099418124468 0.0108762727035696 0.0234231904613089
1652460802305079808 0.0058981211823863 -0.0013193089712661 0.0690568513996412 0.0012209791604282 0.0111218394944731 0.0234302836953744
1652460802313416960 0.0058886889057228 -0.0015826143467294 0.0687861282500824 0.0010517424236186 0.0113330257842395 0.0234034436339412
1652460802319545856 0.0058783043919814 -0.0018102360709969 0.0685570688621061 0.0009109790187263 0.0115197484165994 0.0233480766417043
1652460802333393664 0.0058866963806342 -0.0020428793760216 0.0684489520287624 0.0005772659531724 0.0115374788542859 0.0231276538084852
1652460802346494720 0.0059093338105604 -0.0022447842159238 0.0683277060185090 0.0005030988236460 0.0116914952376413 0.0230361854247979
1652460802355036416 0.0059710667671836 -0.0024127633701664 0.0682975190107915 0.0004527913596598 0.0118326373591981 0.0229328347460442
1652460802366658048 0.0060200725201193 -0.0025533504300693 0.0683201386016451 0.0004098545736991 0.0119598806891299 0.0228152679718855
1652460802383061760 0.0060360466815908 -0.0026807874328903 0.0683799715675165 0.0003614199959145 0.0120714102556927 0.0226782553995017
1652460802398857472 0.0059721756078534 -0.0028780828279769 0.0685825858233217 0.0002496081270287 0.0122603547622432 0.0223168471952604
1652460802418450944 0.0059116391685560 -0.0029604455465603 0.0687881935364404 0.0002132881920529 0.0123506903384000 0.0220765065654074
1652460802439694336 0.0057547204876894 -0.0030226386123970 0.0688972524677344 0.0001796518935245 0.0124355181923282 0.0217993573992477
1652460802460877568 0.0055479869188609 -0.0030566171461413 0.0690529331590144 0.0001610990770776 0.0125031010259299 0.0214980286347109
1652460802473395200 0.0053477992054364 -0.0030325170854214 0.0693380444429944 0.0001520992411829 0.0125409742516266 0.0211882200414828
1652460802486924288 0.0049507897760457 -0.0028537324758962 0.0701387244612554 0.0001024877101264 0.0125079783866937 0.0205723926835747
1652460802503693824 0.0045998210160842 -0.0026610832115359 0.0710051332812374 -0.0000182195265332 0.0123288786043346 0.0199907979477789
1652460802517189376 0.0044279783923626 -0.0025741544783189 0.0713740815132368 -0.0000793727986905 0.0121791393997002 0.0197204838234766
1652460802534423296 0.0041978939347227 -0.0024849303844656 0.0716991456128576 -0.0001138565191730 0.0119894760322862 0.0194718861427509
1652460802545647360 0.0039466881092623 -0.0023617831683090 0.0720567995117764 -0.0001015357559145 0.0117693957332250 0.0192468163221240
1652460802553678848 0.0036967496137013 -0.0021976694049599 0.0724822174713969 -0.0000295914653104 0.0115271605546623 0.0190447128258197
1652460802566690048 0.0032779438287694 -0.0018322738531618 0.0734964765806987 0.0002880892374360 0.0109718241833100 0.0187064465408104
1652460802574668544 0.0031097922502455 -0.0016736228034625 0.0739579080960274 0.0005148912518148 0.0106566095304188 0.0185558724092996
1652460802585026048 0.0029703281121191 -0.0015358677828859 0.0744012337192874 0.0007836046317869 0.0103257229319420 0.0184189147141136
1652460802592370432 0.0028263126591455 -0.0013954136649103 0.0748223742249398 0.0010921899782974 0.0099886686287606 0.0182931289406400
1652460802617953792 0.0026947435793979 -0.0012394300507029 0.0753333039835148 0.0014438686145977 0.0096529099270792 0.0181834509527521
1652460802629206784 0.0025057408373067 -0.0010241695065211 0.0757697265255815 0.0018240077917622 0.0093187570317564 0.0180639862772755
1652460802649776640 0.0020404568790555 -0.0005122737528180 0.0766532825585276 0.0026282374149218 0.0086534701548000 0.0178105334916137
1652460802661727744 0.0018173824178399 -0.0002551005248074 0.0771032248526570 0.0030144966454180 0.0083170075598508 0.0176781707547645
1652460802678195200 0.0015929056392099 -0.0000142078170105 0.0775389838863384 0.0033755193187627 0.0079801217862091 0.0175467668359197
1652460802696095232 0.0013991454514806 0.0002018740917317 0.0780609227733975 0.0037179581174649 0.0076490887271593 0.0174291644535073
1652460802714499072 0.0012347427082492 0.0004301743134911 0.0785427284576140 0.0040333611100550 0.0073192381319531 0.0173078295560367
1652460802726312960 0.0010885996714184 0.0006734457183637 0.0790174261411783 0.0043175363988986 0.0069839427325570 0.0171903257640391
1652460802739190528 0.0009556691175909 0.0009324631007658 0.0794872858094879 0.0045618814222178 0.0066327223366555 0.0170709945343868
1652460802758632192 0.0007078610646638 0.0014806819346561 0.0804299140078934 0.0049266575168794 0.0058571123201305 0.0167965876585511
1652460802775380736 0.0006263062518315 0.0017377717163197 0.0809791787457837 0.0043078288372888 0.0065238894609546 0.0169249360785335
1652460802789660416 0.0004984537902092 0.0020144329553773 0.0813740836146735 0.0044029277897948 0.0060968059507324 0.0167473996758349
1652460802807333888 0.0003287654991514 0.0025512499577694 0.0820570356363589 0.0045022899422925 0.0052245948361774 0.0163782211241584
1652460802814612224 0.0002772372399580 0.0028089986724385 0.0823539646423150 0.0045053896450176 0.0047723011541565 0.0161896222802212
1652460802830028032 0.0002178400231039 0.0030376085148633 0.0825833766456951 0.0044829971985495 0.0043116813534784 0.0159971434695753
1652460802842624000 0.0001496103726541 0.0032419076638954 0.0827483079358149 0.0044496937822570 0.0038533502383906 0.0158066212992720
1652460802847723776 0.0001294598831624 0.0034282854237397 0.0829679182276589 0.0044070520527686 0.0034546458549928 0.0156316568555739
1652460802860305408 0.0001276773817914 0.0036526737408881 0.0831165994247953 0.0044174493860497 0.0030289999408189 0.0154779812204392
1652460802873019904 0.0001718411432969 0.0038897624131562 0.0832756442013401 0.0044703497060764 0.0026213011538867 0.0153471737958190
1652460802888062208 0.0003057595720720 0.0043751064485189 0.0835753370248796 0.0046943445688684 0.0018380016962382 0.0151099016719339
1652460802915688704 0.0003075425425019 0.0045560336548561 0.0836602012109600 0.0047363698972775 0.0015835481162124 0.0150418871782444
