# timestamp wx wy wz ax ay az
1617293829288140032 0.0046265018258337 -0.0068199856605107 0.0099895059253610 0.0011782559498302 0.0030134350257770 0.0037543627059405
1617293829305160960 0.0037289060172811 -0.0082939294763182 0.0106092115267975 -0.0031286346260135 0.0068164536425661 0.0044843499091588
1617293829320445696 0.0022091544991058 -0.0094849656895203 0.0115018032556512 0.0019268450665549 -0.0038378727896606 0.0098935710204636
1617293829335801856 0.0021689540824436 -0.0099294419491234 0.0114790292335894 -0.0021420778489893 -0.0106788247252484 0.0067969127773493
1617293829344971008 0.0020218690270127 -0.0104232918837531 0.0108899832742024 0.0024512986047745 -0.0061520610957332 0.0083893224025490
1617293829375887104 0.0001749841215853 -0.0125134552231012 0.0052430204935400 0.0030598285665404 -0.0030330076571633 0.0053996837779351
1617293829384320000 -0.0005614291882881 -0.0125122248426640 0.0025921219287000 0.0073227348757798 0.0027569192662847 0.0008436480193294
1617293829407815936 -0.0043080441045853 -0.0130697922378865 -0.0081689077616610 0.0022023251627312 -0.0055365531781523 -0.0031695034620432
1617293829425271296 -0.0068541006151454 -0.0141494561194608 -0.0150044130398002 0.0061762630879036 -0.0009459437618143 0.0015386500107126
1617293829445490176 -0.0088043135076822 -0.0150198064584185 -0.0209830738658125 0.0094641440681600 0.0085495078357794 0.0045889524179502
1617293829458822400 -0.0103146560777349 -0.0166685069049424 -0.0241572356479534 0.0018880686091165 -0.0034121114210127 0.0035367834893656
1617293829471902208 -0.0107081607656854 -0.0182502434974588 -0.0270082601160685 -0.0018413918109758 0.0002030411176331 0.0056613890583314
1617293829480667648 -0.0104949747204355 -0.0186291207730969 -0.0274975041136048 -0.0078473698647859 -0.0003840886361205 0.0020434997710719
1617293829496014336 -0.0113784690910157 -0.0200655007017299 -0.0287785272085103 -0.0054014447408144 -0.0021900566483849 0.0048508882489863
1617293829504099072 -0.0108472776431683 -0.0205438896546639 -0.0295889058229327 -0.0058581874398823 0.0013743050544304 0.0095759780733575
1617293829525759232 -0.0101182506105755 -0.0204047607930121 -0.0302759933946899 0.0013270702764776 -0.0038272603230136 0.0084721480052439
1617293829537403392 -0.0095139753645053 -0.0203651436086480 -0.0304213940007249 -0.0025216561537246 0.0001509146334448 0.0072449119343933
1617293829551789312 -0.0080935637497445 -0.0199684737537976 -0.0296151499438949 0.0020125038346470 -0.0083496034201584 0.0078419867074786
1617293829568748800 -0.0071555438190233 -0.0194104882422319 -0.0278101898519326 -0.0128551394574213 -0.0091929211969900 0.0075214399812247
1617293829585746432 -0.0048280076053632 -0.0193477854459908 -0.0248852080687655 -0.0066800793163369 -0.0069887068769362 0.0107474438861218
1617293829585746432 -0.0048280076053632 -0.0193477854459908 -0.0248852080687655 -0.0066800793163369 -0.0069887068769362 0.0107474438861218
1617293829613720320 -0.0027334700238642 -0.0179286654644048 -0.0220532744709247 -0.0052369249182749 -0.0081272166197536 0.0079152820716343
1617293829625535744 -0.0007875887628223 -0.0160888459254240 -0.0206417325141554 0.0003087297041009 0.0038248995659431 0.0094969915167136
1617293829643087360 0.0005054238833108 -0.0147955097052664 -0.0189699078398278 -0.0005173357783765 -0.0024312108599901 0.0090163208821341
1617293829649069568 0.0009416036025856 -0.0137840943539572 -0.0181530565857371 -0.0017610931502176 -0.0058819607517585 0.0096912632298025
1617293829674609152 0.0039345798831132 -0.0113793344582261 -0.0139596045174625 -0.0119579108275272 -0.0178529610797669 0.0045011329503756
1617293829690601728 0.0061717603673346 -0.0100260731188186 -0.0102444082440665 -0.0081913877090135 -0.0039131910700481 0.0103725331391428
1617293829703820288 0.0077567220479534 -0.0092079433740881 -0.0069308419630849 -0.0052325317859761 -0.0044791285085846 0.0063232344820476
1617293829722659072 0.0093900986656141 -0.0080869656081029 -0.0032934845620297 -0.0034324548357245 -0.0105668727028867 0.0052277244617643
1617293829735933952 0.0108213293723139 -0.0071097026671764 0.0007052451568215 -0.0109856325283273 -0.0061761985952182 0.0077817498685727
1617293829752619520 0.0128539697637300 -0.0072222904654562 0.0051895849899016 -0.0119665263936979 -0.0136093038547454 0.0029849845448767
1617293829769060864 0.0137273214852687 -0.0074133043630742 0.0071623588516331 -0.0132464699881750 -0.0167349756614061 0.0033479166053205
1617293829781824768 0.0144426891646209 -0.0078064828137751 0.0115710755623993 -0.0103215662581366 -0.0067642272243692 0.0004161417800035
1617293829800863488 0.0152511196766523 -0.0098938485024473 0.0174906914438835 -0.0081526485503969 -0.0098727302995304 -0.0037891702913546
1617293829817937408 0.0157391239726863 -0.0102053025287743 0.0199816365589116 -0.0091256236053738 -0.0098774524274366 -0.0027972670023225
1617293829832001792 0.0161469897567838 -0.0102972361811902 0.0210345652327741 -0.0075716159260954 -0.0078163072360704 0.0002293733396345
1617293829850762240 0.0159479650706166 -0.0106486349606938 0.0217823222773244 0.0016064842748645 -0.0029278367754769 -0.0048840844378424
1617293829874219008 0.0161869331783927 -0.0102906075732379 0.0212376459132786 -0.0041249180249322 -0.0136400417323079 -0.0049740418218873
1617293829893000960 0.0150441907283633 -0.0106047846817492 0.0207422540083659 -0.0006728512126415 -0.0087715425452274 -0.0024568538313479
1617293829904273920 0.0151417689506960 -0.0109256103719447 0.0197954975776816 0.0065318093595168 0.0036103775928468 -0.0028650617888878
1617293829926809856 0.0146649406101539 -0.0118210956252974 0.0190047171657211 -0.0051232624638104 -0.0056117035070410 -0.0070213560173809
1617293829943997696 0.0128957893822383 -0.0119998563186912 0.0162596305826083 -0.0051859614694357 -0.0003358851023632 -0.0013077322221540
1617293829951839232 0.0126235091239794 -0.0117210153630768 0.0148357821584418 -0.0028198944628231 -0.0045542088196863 -0.0044343992918297
1617293829967059968 0.0126134081294808 -0.0111498692808207 0.0135373932295785 -0.0008508919470822 -0.0023096202444731 -0.0018491252045874
1617293830010198784 0.0100546802384249 -0.0117155233647151 0.0073986165009279 0.0010951256780274 -0.0055038881669449 -0.0056793338841794
1617293830036301056 0.0083491199710232 -0.0115565712634445 0.0030699344388213 0.0010022611065655 -0.0051032419312119 -0.0069613153388151
1617293830064127232 0.0052814060692708 -0.0125988100086153 -0.0017221123529288 0.0008592864102186 -0.0013122011465000 -0.0062078862460567
1617293830080018688 0.0044884072441201 -0.0135081650049189 -0.0038386569661082 0.0010598954230884 -0.0058879227241174 -0.0037453324353238
1617293830110590464 0.0020263228058511 -0.0145705518953275 -0.0057451380904048 0.0018655297867949 -0.0076771197316513 -0.0040616680093617
1617293830127796736 0.0001409938847222 -0.0170137288256343 -0.0063900798348521 -0.0097375023091123 0.0023523075721198 -0.0020229350556053
1617293830151818240 -0.0013733567427918 -0.0197833937223681 -0.0060991001909889 -0.0012204888024492 0.0015021627176810 -0.0030285425217662
1617293830185575168 -0.0016674376377744 -0.0217044343483032 -0.0046114490850069 -0.0004054257632150 -0.0021745388983922 0.0011248887110388
1617293830201161216 -0.0010053957644983 -0.0215507406586487 -0.0031625602886909 -0.0033993606142800 -0.0037883165630528 0.0005900286884675
1617293830231911936 0.0000905549451777 -0.0213242707658950 0.0000380826357492 -0.0039833258246146 0.0002789028404976 0.0014178883817644
1617293830247784448 0.0001239962589758 -0.0218352967579782 0.0011255565036916 -0.0001030876008487 -0.0078251635016833 -0.0046560306995903
1617293830260922368 -0.0001787785253437 -0.0215076507122273 0.0020535855855905 -0.0020012994467169 -0.0054420583262757 -0.0046995636320471
1617293830312025344 -0.0010143053699274 -0.0216809053200848 0.0072621334612818 -0.0054549202101342 0.0002166449802407 -0.0026162821885568
1617293830338201600 -0.0017145743583049 -0.0227052959461138 0.0093351535378442 -0.0070516893905400 0.0057564072093529 0.0004706932810935
1617293830356592128 -0.0030539885916720 -0.0230240470337935 0.0112355559969527 -0.0064774856727118 0.0028329542859114 -0.0006771187527542
1617293830376785408 -0.0031317808586970 -0.0232769168424515 0.0131278784253140 -0.0164763975804097 -0.0007322043295795 0.0039834815235736
1617293830391795968 -0.0025653038579780 -0.0232549657371774 0.0164328480222969 -0.0070151967216534 0.0032067341195713 0.0063697069049038
1617293830425413120 -0.0024646017476741 -0.0228964123754037 0.0170751052718442 0.0015590671709924 0.0045493316856621 0.0037049745478226
1617293830439610112 -0.0023953861909235 -0.0217782415811785 0.0164803947688186 0.0035954624284303 -0.0031128167833799 -0.0021937842689451
1617293830451520512 -0.0024083265569051 -0.0213318023179990 0.0163077832792647 0.0021471458498546 -0.0023399637934302 -0.0003675510364458
1617293830481199104 -0.0024477479989254 -0.0205329192384360 0.0162997205590644 -0.0154907026275895 -0.0128992091610559 -0.0019938325995706
1617293830496082944 -0.0023723592347844 -0.0202889084351439 0.0160587044804123 -0.0020416276400721 -0.0054856679608374 0.0004518291097490
1617293830516571648 -0.0025209072915474 -0.0202696751751874 0.0163409386265382 -0.0106360083809825 -0.0139469462444243 -0.0022722889575194
1617293830528128512 -0.0040087647924950 -0.0207290158683877 0.0157105670649359 -0.0057299136160974 -0.0014548037963030 -0.0063410455949818
1617293830541192448 -0.0043239858601909 -0.0216019667841800 0.0155486828233338 -0.0115044868763124 -0.0066636146678518 -0.0089697524050859
1617293830563643648 -0.0070486792872577 -0.0243974217328873 0.0150824591902602 -0.0166649842760263 0.0026708632795292 -0.0068564702032145
1617293830575792128 -0.0073270968002785 -0.0257315256230299 0.0144385055070985 -0.0187330286165367 -0.0005038469489248 -0.0027085136111020
1617293830594149120 -0.0082919760421746 -0.0263631888177313 0.0142163459405446 -0.0193979339344103 0.0036876459304245 -0.0020386010696610
1617293830614120192 -0.0095460603503160 -0.0281048072928907 0.0136671881018037 -0.0387895515879730 -0.0054361776852528 -0.0030543507528900
1617293830633138688 -0.0114635696246978 -0.0306230777722015 0.0137306445726775 -0.0279233949527637 0.0016960360299125 -0.0047439765754628
1617293830648094976 -0.0112897118108645 -0.0320546546898282 0.0133526634507431 -0.0360981656207136 -0.0043022846496449 -0.0055152156098364
1617293830672436992 -0.0125038256465345 -0.0328189819226443 0.0112564973462250 -0.0323546949525072 -0.0016680302938234 -0.0007992485840428
1617293830687897088 -0.0130136718582535 -0.0327816017935752 0.0102326197651137 -0.0349618458609500 -0.0091930611204714 -0.0005729266916874
1617293830707307264 -0.0128124487326156 -0.0329214110929027 0.0097280119912488 -0.0322430962067530 0.0021031376882037 0.0021082835233553
1617293830717305344 -0.0125277190416497 -0.0327203923118828 0.0093122294663687 -0.0259458992635395 0.0053734782878199 0.0026992495561330
1617293830733511936 -0.0123442964847265 -0.0322612060820016 0.0076806131981791 -0.0305338726368077 0.0059331296661061 0.0021324492538815
1617293830766190592 -0.0119608492246409 -0.0311309365469502 0.0027408848029204 -0.0186995249266402 0.0050214510573388 0.0024035634936924
1617293830783798272 -0.0110791790101707 -0.0290411281853064 0.0010185508240116 -0.0212824738530568 0.0007080187642148 0.0022372401318649
1617293830807285760 -0.0098350886332717 -0.0282991315582308 0.0007462439341315 -0.0192434239995577 0.0002176417787249 0.0016202829361181
1617293830823874560 -0.0074864322205817 -0.0279424743671947 0.0018300546239945 -0.0217932074939708 -0.0005383960293222 0.0013197500327921
1617293830847933440 -0.0059238317720589 -0.0273169071482395 0.0026980667075673 -0.0118803131946453 -0.0032512320069514 -0.0010730549712990
1617293830863964160 -0.0048929327667567 -0.0275323182646062 0.0039909368745821 -0.0163445060909796 0.0009649006958692 -0.0004491648063212
1617293830880038656 -0.0042774216440449 -0.0273430034637911 0.0043729353750209 -0.0218505143294555 -0.0031065300384002 -0.0029289253826318
1617293830896118784 -0.0018129536766180 -0.0272402986563998 0.0067181762836497 -0.0141089589448449 -0.0008180002751033 0.0004511355903743
1617293830921035008 -0.0006161503880351 -0.0265789784998041 0.0074040494539498 -0.0112447405915754 -0.0070903301302633 0.0014894409474449
1617293830934492672 0.0013934057230662 -0.0259617376540051 0.0084996206631866 -0.0184850993547381 -0.0019864617031976 0.0002605502929614
1617293830960607488 0.0037316802219306 -0.0238529123499998 0.0096940535540008 -0.0229469486493441 -0.0152880202956929 -0.0002629890617422
1617293830983855360 0.0057492311426300 -0.0229215463273098 0.0112519948022139 -0.0195280023283018 -0.0199631643978949 -0.0052981885330012
1617293830999800832 0.0065524378642255 -0.0227297694340705 0.0118641836314737 -0.0176580021977266 -0.0138028882185697 -0.0033849037023545
1617293831017714432 0.0082000404581598 -0.0222336087360560 0.0126804367655767 -0.0086010623014099 -0.0114663685230384 -0.0056356611732951
1617293831048995328 0.0099273534253624 -0.0214396338624146 0.0125886256185767 -0.0078770339853617 -0.0094785113373136 -0.0067779644622015
1617293831079794944 0.0128249073123992 -0.0219755883739340 0.0144789040708013 -0.0130048584581662 -0.0296702209609398 -0.0083884576378345
1617293831095979776 0.0142823075715188 -0.0226958509434040 0.0147961597935597 -0.0012129408371520 -0.0218775775227060 -0.0110376708271192
1617293831111803648 0.0142644680058328 -0.0229638930734948 0.0142133828898425 -0.0020143962456575 -0.0202911862673517 -0.0024458155383664
1617293831130513152 0.0142599419635542 -0.0232959373297802 0.0135749219764291 -0.0029582313048714 -0.0233357976227066 -0.0033851237135588
1617293831143890432 0.0148445657439261 -0.0240582019443654 0.0123488465527146 -0.0076109460530305 -0.0182184842048165 -0.0046605215672691
1617293831174320384 0.0138408363080481 -0.0247256473714717 0.0098634794285896 -0.0154924678512272 -0.0164163758695913 -0.0053700421917043
1617293831186943488 0.0127035213803071 -0.0257397724566313 0.0074297616506456 -0.0142519393306214 -0.0137568348438051 -0.0023267306102560
1617293831201948160 0.0117668263722318 -0.0260995135882358 0.0063030913777794 -0.0194022351152135 -0.0101009487432128 -0.0017799783765711
1617293831201948160 0.0117668263722318 -0.0260995135882358 0.0063030913777794 -0.0194022351152135 -0.0101009487432128 -0.0017799783765711
1617293831201948160 0.0118005444976925 -0.0260774871652406 0.0062953684731574 -0.0195853430042921 -0.0103070063534986 -0.0016414334030848
1617293831258907904 0.0097121561551769 -0.0260649676449176 -0.0007333594601261 -0.0182788817824918 -0.0165807131549586 0.0005188609979754
1617293831295855104 0.0092467714178657 -0.0255000153039144 -0.0039323312509822 -0.0156378924658465 -0.0156727995416804 -0.0040281809427396
1617293831312932352 0.0091393254305503 -0.0248709458057975 -0.0059359327153107 -0.0117412744984761 -0.0168950356934718 -0.0045212367601920
1617293831330304512 0.0087366421579377 -0.0245836080347229 -0.0067666352435920 -0.0051133150077017 -0.0123275770356961 -0.0003874613328506
1617293831391720192 0.0075317575071452 -0.0188597584618931 -0.0174185552240925 -0.0034553997834859 -0.0120367694766705 0.0010870360944742
1617293831425381376 0.0060194515459154 -0.0142539328335483 -0.0245449051671138 0.0005522236226872 -0.0084019109332127 -0.0013825627713349
1617293831459495936 0.0046563298526256 -0.0091252132116018 -0.0312045149785706 0.0060135821390254 -0.0188387352661730 -0.0000517239698855
1617293831480778752 0.0052668755115660 -0.0045617255626009 -0.0342148790378662 0.0095262158184232 -0.0188761060248269 -0.0001388769789096
1617293831491842816 0.0058951365180208 -0.0030497637906476 -0.0349383720217248 0.0031597253688371 -0.0196012134115528 -0.0005704691874217
1617293831521421312 0.0072042059403437 0.0034862721297094 -0.0354985515751966 0.0087561206238647 -0.0242953810675400 -0.0025409973470704
1617293831543767296 0.0087335088858163 0.0072659075803231 -0.0337179101387284 0.0030131949214200 -0.0109462018765833 0.0008598860078518
1617293831561847808 0.0104395937960114 0.0102765845609595 -0.0324649154827154 0.0021886513965384 -0.0132028098834957 -0.0001868045172423
1617293831586508800 0.0114528693328481 0.0126393077905016 -0.0285686455604827 -0.0105581927665568 -0.0172561554743720 -0.0020409715470134
1617293831601552896 0.0126543173303009 0.0150794282626847 -0.0250777413313042 -0.0119738640013867 -0.0226143890069924 -0.0019784288995963
1617293831621965312 0.0132502715295562 0.0157083643804367 -0.0233343415395196 -0.0133063430546109 -0.0177523546853059 0.0005560754218411
1617293831641200640 0.0153787164780783 0.0184686935659581 -0.0181699169167687 -0.0136706674967792 -0.0123967754592784 -0.0006492675451395
1617293831676102144 0.0152012833705080 0.0213300843885666 -0.0127232158605970 -0.0061304028305151 -0.0128501119024143 0.0002294009505037
1617293831691852032 0.0144378988967128 0.0222750644908004 -0.0114512381923339 -0.0117308274115979 -0.0123671224399489 -0.0039083700666486
1617293831711757824 0.0136510586316221 0.0234864765495450 -0.0104589643438786 -0.0053670189339410 -0.0155012769730347 0.0006375995652103
1617293831741212416 0.0113270647575042 0.0269884468647412 -0.0114978100289859 -0.0038556393729373 -0.0124903813194426 -0.0021525032729951
1617293831768281088 0.0067681683982860 0.0310280348010460 -0.0155411024223574 0.0164742046320803 -0.0118290290513186 -0.0062235661636158
1617293831792058368 0.0025061865373824 0.0333248221568384 -0.0202669909663077 0.0152861720306271 -0.0071635837685976 -0.0079187723473888
1617293831807969280 -0.0007408366689493 0.0340042704510562 -0.0241672023669537 0.0175691725697797 -0.0032279071300476 -0.0043654625519179
1617293831832306944 -0.0063534859504325 0.0345487284359864 -0.0290858931211813 0.0172073266977260 -0.0087688937824151 -0.0119184118634558
1617293831858362112 -0.0094329402812416 0.0351691109244328 -0.0313757713784591 0.0131938653683059 -0.0021977952447149 -0.0126252475664209
1617293831881356288 -0.0162533144749511 0.0343467587378909 -0.0351103860909434 0.0059643067445802 -0.0073691214265282 -0.0091739248344420
1617293831888073472 -0.0178354532048110 0.0337180676309774 -0.0356186543797267 0.0045653247537471 -0.0038306714079837 -0.0075463523788372
1617293831905656832 -0.0193712582580226 0.0333042283765817 -0.0360633170606150 0.0083521610936095 -0.0002514178755714 -0.0078030471975245
1617293831923707648 -0.0226682543506644 0.0320259909482611 -0.0364725117621057 0.0119500528750012 0.0005035028563147 -0.0108919041407295
1617293831955793408 -0.0287803741683570 0.0273596640022900 -0.0342503195484829 0.0104683844263889 -0.0032013559467083 -0.0130619743315737
1617293831968073984 -0.0300280318495307 0.0269119706441126 -0.0326837949320765 0.0184718912425390 -0.0109595539757344 -0.0089164831439259
1617293831983438592 -0.0303430052432386 0.0264001909774474 -0.0315694404476713 0.0164058420102492 -0.0085698962227564 -0.0107495234367179
1617293832006171136 -0.0320313415163361 0.0240956897756679 -0.0276230924443009 0.0118213100558603 -0.0151699729544190 -0.0087334328945894
1617293832026118144 -0.0325613691628367 0.0219006844420837 -0.0239254370814247 0.0090719124246691 -0.0192524554666393 -0.0149304967281843
1617293832039435776 -0.0334787788899238 0.0190937845585585 -0.0194334286759857 0.0140585721449300 -0.0100382504267399 -0.0124881360468591
1617293832072183040 -0.0378477855586989 0.0104661879139444 -0.0095585139117439 0.0082071876743153 -0.0120220156550431 -0.0166089880475184
1617293832095713792 -0.0407836996181804 0.0053892987332117 -0.0052801988837534 0.0082665469632617 0.0005155397577493 -0.0097224978476110
1617293832127738368 -0.0445509566961867 -0.0005850610874597 -0.0002010060685294 0.0015878942036974 0.0028612383600414 0.0006297524983562
1617293832143958528 -0.0464474736032758 -0.0030784083737098 0.0024301118673140 0.0001121566445822 0.0023724140750279 0.0014958500913876
1617293832176039168 -0.0476167456607850 -0.0054821295956084 0.0056902409026997 -0.0006031557377762 -0.0036779156605584 0.0003038763971859
1617293832207790080 -0.0478160166893273 -0.0044423076690663 0.0068595204214266 0.0056380643957476 0.0007580954635811 0.0041980274603457
1617293832231777792 -0.0464162845203756 -0.0010783503856070 0.0050005421014937 0.0083126057869309 -0.0030711609895086 0.0089438913191884
1617293832247552512 -0.0466381191812264 0.0014037117555634 0.0025067660462268 0.0112366770058679 -0.0020577446327092 0.0069363318549044
1617293832272358912 -0.0464471944994728 0.0040118799006612 -0.0002032453737491 0.0155551530542825 0.0003522134123648 0.0063952976460088
1617293832304517632 -0.0465545771492419 0.0106250641562948 -0.0095710796240904 0.0191396795087827 -0.0044451206595338 -0.0003743791282754
1617293832327765760 -0.0460025651079225 0.0139351163961465 -0.0151011469434454 0.0239434763134351 -0.0028507176704911 0.0019975285393507
1617293832376964096 -0.0476234674789271 0.0187758297935971 -0.0274743518260384 0.0180463613442118 0.0051097877448237 0.0004029030565913
1617293832400410368 -0.0486122019862568 0.0197782236541945 -0.0332800563182166 0.0166965285187108 0.0059885713527045 0.0032821333659983
1617293832423966208 -0.0491132685312592 0.0209714138892819 -0.0378254009366918 0.0142730409763431 0.0021874305524543 -0.0001991828773935
1617293832447780864 -0.0478479554236194 0.0224854622479374 -0.0412204998944462 0.0129725492487940 0.0088973030814458 0.0069586546067124
1617293832480886784 -0.0452469232186325 0.0239048552035257 -0.0421402518716771 0.0016683457603223 0.0012176320704566 0.0076583494008834
1617293832495960832 -0.0440038355218906 0.0242822144773156 -0.0410686650912175 0.0017679695878410 0.0047357278741354 0.0093287808462534
1617293832517166848 -0.0427670728327527 0.0238404067051011 -0.0399048663580140 -0.0023725511671007 0.0111774921497335 0.0082730271572570
1617293832543951872 -0.0402478289680683 0.0216623483970567 -0.0350769601021860 -0.0098130153965477 0.0041278582788247 0.0044348414206006
1617293832578495232 -0.0364606603218013 0.0185049154505789 -0.0269473013935386 -0.0094449498750932 0.0036536596060145 0.0059745429492735
1617293832597122560 -0.0346364003014763 0.0172482443006705 -0.0216311045518446 -0.0047913969424853 0.0079738545947064 0.0111737667104948
1617293832597122560 -0.0346364003014763 0.0172482443006705 -0.0216311045518446 -0.0047913969424853 0.0079738545947064 0.0111737667104948
1617293832632409856 -0.0270729269320391 0.0147078988789089 -0.0085080467169234 0.0009795890710353 -0.0045959675464280 0.0083691647620766
1617293832656346112 -0.0213204803354602 0.0139877907727026 -0.0009557466396525 0.0038225504505933 -0.0064182086942005 0.0039499946625263
1617293832672635904 -0.0174102248228495 0.0132235221293356 0.0054479533647558 0.0025012515356388 -0.0128182827330647 0.0017554574865349
1617293832697370880 -0.0111926058206383 0.0122672957116009 0.0140326722623087 0.0070348999889318 -0.0127600798532295 0.0026299362462920
1617293832721892608 -0.0055294456943739 0.0099453974098647 0.0234572478228352 0.0086499176169113 -0.0081726608312784 0.0025163098827091
1617293832736204544 -0.0023356484255976 0.0087223220370817 0.0289803789391311 0.0117272622083734 -0.0205297637324752 0.0010707981673285
1617293832762464256 0.0035874801652058 0.0060829536281204 0.0363060360181529 0.0186346673458504 -0.0222013292155514 -0.0094666091151799
1617293832772952064 0.0047277165806254 0.0050969408713850 0.0380409190207714 0.0186688289731757 -0.0161020348254486 -0.0108525324541322
1617293832803440384 0.0084013985163888 0.0001886296497185 0.0440419680892199 0.0119806699726497 -0.0114768206843313 -0.0108786561761932
1617293832823830272 0.0101701662489926 -0.0058379361179033 0.0476286655084389 0.0075197747422042 -0.0076402096202693 -0.0153592217392086
1617293832856063744 0.0090997246276765 -0.0136702489415034 0.0482963679306214 0.0020574216272748 -0.0019462381036336 -0.0143362139981433
1617293832870395136 0.0085345179547649 -0.0154467731308830 0.0483073281700876 0.0026448048423481 0.0049847303674565 -0.0095131886472871
1617293832895982080 0.0057334916728387 -0.0245316105625086 0.0482813530283956 -0.0003412059658023 0.0046640397731423 -0.0091676631380166
1617293832911955968 0.0037154733673089 -0.0286547844726633 0.0486771054242841 0.0012143979468773 0.0168755465925801 -0.0078564051340251
1617293832935909632 0.0015611398297632 -0.0350511967365904 0.0479677112152364 0.0048082730722395 0.0134768473572919 -0.0048691737435858
1617293832968020224 0.0000376612176016 -0.0384487870814535 0.0449184743250895 0.0198639622887036 0.0109628232390895 -0.0010716871450072
1617293832984175360 -0.0007223315010442 -0.0379800253296025 0.0423241780492330 0.0151456648108907 0.0139628048193950 -0.0040866196016868
1617293833024114944 0.0003227501687209 -0.0339917538444452 0.0365371729426488 0.0191012708594976 -0.0031023240547156 -0.0029413298306122
1617293833056834048 0.0040838380340917 -0.0264186797793011 0.0324562900304908 0.0217936336474172 0.0098175353796527 0.0045862936211162
1617293833079954432 0.0065368450878771 -0.0204028252456615 0.0298679171617237 0.0220702111863260 0.0192680610443425 0.0018407034423341
1617293833111822592 0.0084255163224562 -0.0146084831304165 0.0286801007102293 0.0107667074061410 0.0116709727223059 -0.0004911435870086
1617293833143894784 0.0128193840688940 -0.0078725500356294 0.0316553544325863 0.0071776935416093 0.0155797747872080 0.0043685422233891
1617293833176086272 0.0165076238257852 -0.0015361787385055 0.0323465286250363 0.0066985743657326 0.0240545507733302 0.0015098220273234
1617293833191772672 0.0175526762007649 0.0017319207246859 0.0310589155380133 0.0063419934692713 0.0208224035380308 0.0027211861198958
1617293833227437824 0.0177747332356676 0.0046955423120500 0.0294949994878946 0.0085034610739169 0.0236265899950857 -0.0060091267249368
1617293833238601984 0.0172466350494311 0.0054398225997931 0.0277037426913213 0.0054599858344524 0.0308000397435890 -0.0027821595598335
1617293833280157440 0.0104436379818453 0.0052228721764615 0.0127423739981068 0.0070416752460300 0.0317512764977470 -0.0135661659873971
1617293833295919616 0.0073803754653645 0.0039191915819383 0.0077035193111280 0.0139869580562164 0.0373167126947239 -0.0122452164320053
1617293833343701248 -0.0003934356986719 -0.0004571224476199 -0.0098513222043411 0.0177257419423331 0.0275378472536120 -0.0073340544454575
1617293833360618752 -0.0029334175988078 -0.0006270228040529 -0.0154859265859650 0.0126805675342395 0.0258491698237345 -0.0061305250365406
1617293833386069760 -0.0050743807359860 -0.0008160446571198 -0.0237837493156315 0.0133479671604646 0.0299401207702931 -0.0054246953196702
1617293833423928064 -0.0087012239769607 0.0007846230160795 -0.0356984830270841 0.0093533368714293 0.0179576601144710 -0.0032165203011385
1617293833463709696 -0.0100869559079820 0.0017459069905180 -0.0406828153758600 -0.0003536714630647 0.0204652310327296 0.0017559841135975
1617293833487689216 -0.0102787314556712 0.0035878502993902 -0.0422417624915786 0.0035078891588606 0.0176967229251852 0.0032705772714267
1617293833520707584 -0.0094056487133315 0.0072393770489413 -0.0440298474632937 -0.0016511244442105 0.0179065636166371 0.0048066828855206
1617293833540294656 -0.0098395429023397 0.0074720121596468 -0.0435401680389191 -0.0121063131490192 0.0129335828890465 0.0040182576539757
1617293833575698432 -0.0113392807649080 0.0071108462368696 -0.0407895553965444 -0.0138026355766432 0.0166275643941795 0.0015396720806481
1617293833600556800 -0.0121154125343026 0.0077213052257815 -0.0397431658304544 -0.0150397423132461 0.0132262446277489 0.0105611350979256
1617293833641778176 -0.0108054709206907 0.0068215457047488 -0.0325098035813788 -0.0141521387140193 0.0173902550372123 0.0160606546804307
1617293833663737344 -0.0089624502620384 0.0071076331216501 -0.0269369006474704 -0.0165639664998002 0.0161701141793131 0.0165196366016554
1617293833679912704 -0.0067489306325344 0.0077565056632921 -0.0238612665045986 -0.0129087906214373 0.0214294232141187 0.0174546305493147
1617293833695780608 -0.0051913409216024 0.0083841394952534 -0.0205363378468261 -0.0085628646324107 0.0147135436420635 0.0170045558430350
1617293833725802496 -0.0036473999809337 0.0101303144489842 -0.0168935384427171 -0.0081502194999509 0.0220494767134888 0.0186063502821317
1617293833741363456 -0.0025641046127650 0.0099539066583606 -0.0130594786319682 -0.0132136693469941 0.0174818680088136 0.0164927060677979
1617293833767897856 0.0003607280333094 0.0090055629836300 -0.0056373631898442 -0.0188293397581595 0.0210276413859304 0.0198180080384910
1617293833791728896 0.0018350114021564 0.0081361074667352 -0.0016029258070972 -0.0260176114277182 0.0131634574610409 0.0177452727013166
1617293833815824128 0.0027322343680857 0.0057921568596813 0.0012631095685021 -0.0169030370797463 0.0210314089269820 0.0209017551126225
1617293833831728896 0.0026577891981884 0.0055054173824086 0.0013802090600801 -0.0125678258165407 0.0262632483493260 0.0167146107023474
1617293833855944192 0.0022396516017652 0.0055142763877823 0.0001365554415905 -0.0122896028247230 0.0152262180436668 0.0160681956708777
1617293833880041728 0.0031925186555395 0.0047874557841375 -0.0001538556173799 -0.0194173796251420 0.0148617004297765 0.0199765029425157
1617293833911858432 0.0040520938447242 0.0026925014179383 -0.0012987006331054 -0.0166007084003911 0.0203543908253386 0.0167033228955988
1617293833935694336 0.0030777270914087 0.0001078463221189 -0.0039555020945015 -0.0203775225107046 0.0196016530305108 0.0120623110006579
1617293833960070400 0.0014385443236493 -0.0035893265519902 -0.0084022349806938 -0.0109784509871976 0.0216340719003545 0.0077333035904508
1617293833975867136 -0.0001997032156611 -0.0055788530284916 -0.0107504013717801 -0.0156596035475295 0.0203406783321472 0.0099859377412824
1617293834007993344 -0.0008819891080253 -0.0090926277706644 -0.0151424653362501 -0.0148207156802812 0.0240783471333259 0.0221202539499970
1617293834024020736 -0.0000381065955365 -0.0097262097729647 -0.0167421369871642 -0.0081370762680611 0.0103040144535101 0.0179749177642882
1617293834048837376 0.0018130540149702 -0.0103716108842012 -0.0172921982629340 -0.0104518325869620 0.0044525406831293 0.0182603212439674
1617293834075626240 0.0042902601958496 -0.0101450733111421 -0.0174600202488703 -0.0074343091328621 0.0042379353193290 0.0175069249785829
1617293834095687424 0.0066848827689669 -0.0090665117118519 -0.0170944947313542 -0.0083698929925926 0.0090316367758081 0.0183542752706796
1617293834112791296 0.0099317288751071 -0.0086097862428746 -0.0158563658405461 -0.0094697001599333 -0.0012747518080747 0.0197222553176897
1617293834137446400 0.0126795185667010 -0.0072295883606315 -0.0129091466622768 -0.0125812140664945 0.0054108756378376 0.0231796874927155
1617293834159978240 0.0165073199488064 -0.0078215571393748 -0.0096948909899247 -0.0177380461342515 0.0183294520369575 0.0165145304842408
1617293834177378816 0.0177840513596002 -0.0073635213951047 -0.0078342947996296 -0.0173942346384398 0.0082401494909519 0.0153527668042539
1617293834205314816 0.0194854424483320 -0.0066226179956650 -0.0055205297919244 -0.0248352716625110 0.0112856210549035 0.0145927303455800
1617293834223748608 0.0212774302825796 -0.0072554649655220 -0.0021163747548831 -0.0248551192588259 0.0188342936738284 0.0167266653614960
1617293834246200576 0.0216840534696958 -0.0074353223784085 -0.0014161411711801 -0.0178422802891075 0.0204904013142055 0.0145549978957167
1617293834276843264 0.0216382351146682 -0.0103592442234068 0.0007222400313574 -0.0258859640895318 0.0137982428801976 0.0084111019727488
1617293834295314176 0.0213965053457966 -0.0106556784343032 -0.0003138827681603 -0.0140691059859008 0.0183981453927130 0.0131292302520620
1617293834312716800 0.0209567575287218 -0.0099173702853061 -0.0014071823009872 -0.0066828526854138 0.0196637251430700 0.0159376728055896
1617293834335727104 0.0225076374052911 -0.0090888089385852 -0.0019918407024783 -0.0143652481239997 0.0173991497989670 0.0177728867675318
1617293834349409280 0.0227782185667798 -0.0090881617904453 -0.0015433244274926 -0.0145562944131025 0.0126082946119966 0.0178174743603542
1617293834382662144 0.0253156425007030 -0.0081479327676573 -0.0018570314880985 -0.0069681465120482 0.0111943806236837 0.0117891276032941
1617293834396972544 0.0271047857724147 -0.0067598684667017 -0.0027751980562502 0.0019345008447836 0.0096657992297053 0.0154081150816875
1617293834425820160 0.0300576228890134 -0.0032751967489628 -0.0029201232880307 -0.0007821180748587 0.0006835594828468 0.0133438896742974
1617293834436823296 0.0315113639648152 -0.0029148843693141 -0.0019285152298479 -0.0043340577117253 -0.0029696724283374 0.0163330144957116
1617293834461798912 0.0342260515142622 -0.0023647706660240 0.0003445857913069 -0.0074107950937111 0.0015206921721009 0.0097055587556271
1617293834477670400 0.0350181848120444 -0.0022211104357787 0.0000987800174343 -0.0000404375908972 0.0011566069568304 0.0110116701638671
1617293834503845120 0.0369857428727713 -0.0007742483051155 -0.0002585842429213 0.0059720051770667 0.0018957039328513 0.0046203062183341
1617293834516824064 0.0366341110666748 -0.0004433026027731 -0.0005098015601290 0.0108516546622581 0.0082881943653828 0.0082894025031947
1617293834544154880 0.0365533640224256 -0.0004179546355167 -0.0013589451473786 0.0023661386322944 0.0045782758563608 0.0067535920777590
1617293834569842432 0.0364717297581324 -0.0008104060589316 -0.0022442103351449 0.0094967626077844 0.0068349676389400 -0.0016806257722200
1617293834583978752 0.0366310826651204 -0.0005427969852224 -0.0026316643210767 0.0108590909129147 -0.0095317256535439 0.0037286877793174
1617293834623820288 0.0362624918492558 0.0026624225814985 -0.0058680268936375 0.0159714936842012 -0.0071773404341712 0.0070174530821901
1617293834647672320 0.0365355390979556 0.0049156046690992 -0.0103881116748687 0.0157716270682698 0.0075243978785719 0.0097735501908821
1617293834663721984 0.0348829730731142 0.0066842552227572 -0.0136874353703406 0.0073799376569530 0.0025194974945114 0.0046864782123420
1617293834690823168 0.0325586446370144 0.0080979064031267 -0.0195627961724104 -0.0001749959095563 -0.0043313665592345 0.0038513373894826
1617293834712528896 0.0308298935628563 0.0090940431667568 -0.0241452402021463 0.0052415156097304 0.0037744663838663 0.0021040141974643
1617293834735889408 0.0292951857078414 0.0106508796306780 -0.0285111300716949 0.0004370996091318 0.0029909874698346 0.0037885598990081
1617293834752257792 0.0286781272885731 0.0124466424957939 -0.0304441096488378 0.0024443362981589 0.0007858277582180 0.0057658033493666
1617293834768455424 0.0285073161310034 0.0126200648828187 -0.0309233175238061 -0.0032377151049706 -0.0003954308041101 0.0035881901959547
1617293834816087808 0.0300579549915241 0.0150678934197244 -0.0328519628062750 0.0010655099428763 0.0052499699672753 0.0044819153051826
1617293834840649472 0.0289474021696180 0.0162754505527973 -0.0354509457088249 0.0054228322390748 0.0023051347807856 0.0026614288027744
1617293834871886080 0.0274562769700267 0.0165545857877347 -0.0398239520925343 0.0083568635681284 -0.0047813057242063 0.0001784744217271
1617293834904967424 0.0253571085028410 0.0159172993056962 -0.0427037717998174 0.0069299963000070 0.0012821322289272 -0.0066334106070432
1617293834931207424 0.0242808998062948 0.0140406229487938 -0.0434037171133175 -0.0025230061349992 -0.0025499628978607 -0.0054733088827415
1617293834952066304 0.0221960920930111 0.0112177904466316 -0.0441201769522198 0.0058447275009462 0.0007723299948297 -0.0071083126966954
1617293834986333440 0.0193199966263704 0.0070647305427405 -0.0449014818370218 0.0008428872753945 -0.0018711704779950 -0.0075014160938933
1617293835008564736 0.0170338299570454 0.0049765605794763 -0.0454567535874644 0.0053797978684621 0.0037072570516902 -0.0071468999876793
1617293835023312384 0.0165330584667222 0.0040172326968934 -0.0454670959735578 0.0000787481333152 -0.0041880048223881 -0.0074165158322947
1617293835064882176 0.0124627589567498 0.0006861774371702 -0.0465559839800390 -0.0028820560018078 -0.0023022952234782 -0.0039261120784048
1617293835080076544 0.0110656273646705 0.0009898736752588 -0.0468904397286977 0.0067754557368354 -0.0053318759902519 -0.0048793205513210
1617293835112112640 0.0093531294196098 0.0015397120480732 -0.0459454443098998 -0.0050594156280370 -0.0020928778759818 -0.0012897608794738
1617293835127988480 0.0094519513381800 0.0016693427457091 -0.0445434324750914 -0.0049140620918033 -0.0013181456906898 -0.0019964139545514
1617293835152044288 0.0083604058637004 0.0018159939131943 -0.0422361004588702 -0.0009086541036414 0.0029451586070647 0.0005798027486774
1617293835176806656 0.0081330757699031 0.0022862122878986 -0.0404423376277112 0.0015202553319234 -0.0011150032454115 -0.0029204475248781
1617293835208054016 0.0089642403566801 0.0056333224143129 -0.0376155239570660 -0.0066982398618752 0.0068393514644272 0.0019070052529481
1617293835240232448 0.0089618821275838 0.0082752913999690 -0.0361212189431004 -0.0021008204909963 -0.0009641496032724 -0.0003663986976295
1617293835272115712 0.0074209997577897 0.0097840853418458 -0.0357456879293689 -0.0016622264116839 0.0055011979498683 -0.0009680650050135
1617293835296688128 0.0061135746183587 0.0113553319136951 -0.0361460279167788 -0.0062643526597832 0.0032862425439244 0.0016443815017069
1617293835320157184 0.0051871900384776 0.0128365328435067 -0.0369590430606804 -0.0041400926724049 0.0066493245716657 -0.0030494451363387
1617293835347993088 0.0049153252333601 0.0137308103533189 -0.0375872534670581 -0.0011766460714547 0.0009464616615518 0.0016007914203207
1617293835368341248 0.0027796577920184 0.0140274292408243 -0.0370828054828585 -0.0070859237230068 0.0159388619238914 0.0014601747511495
1617293835392111616 0.0006207422859382 0.0141526044699984 -0.0373105763298292 -0.0095637626129559 0.0137226307126924 0.0054471291016902
1617293835416267520 0.0007964709704696 0.0144662236462793 -0.0350156225604838 -0.0115286950695475 0.0146600947906411 0.0096410850548587
1617293835447949824 0.0016989656638469 0.0159157316275051 -0.0320475548256208 -0.0159865265440443 0.0103782557553100 0.0094161480754744
1617293835472626688 0.0011877213313641 0.0161144787008438 -0.0311238664221104 -0.0129783357009657 0.0088604020054786 0.0037354883054290
1617293835496070912 0.0002355373783736 0.0149116247102942 -0.0305306100050400 -0.0128206118260528 0.0050834609636259 0.0025762166563145
1617293835528047360 -0.0021995665749308 0.0117718696379598 -0.0289111444093239 -0.0282565212826849 0.0050710841139337 -0.0041398729010773
1617293835560775680 -0.0062565196531050 0.0081957955684704 -0.0313666788029178 -0.0104164330877105 0.0167896606806230 -0.0055989246738942
1617293835587572736 -0.0094469574164788 0.0069214851944315 -0.0363437938380933 -0.0008033514658679 0.0156042046007761 0.0001458484041304
1617293835610487296 -0.0114444201130633 0.0066805703159422 -0.0409114293605878 -0.0005130940096140 0.0037361676484667 -0.0018348828743756
1617293835624743168 -0.0113621816986024 0.0067215550335357 -0.0414524212412654 0.0003652130123933 0.0036001153558988 -0.0009835198286553
1617293835656475136 -0.0121171452570935 0.0042922594346407 -0.0415046138723088 -0.0247223375672157 -0.0013279479594796 -0.0105839255092618
1617293835672108288 -0.0131467613565802 0.0032940512434009 -0.0424760169516041 -0.0056520907729547 0.0052257523444307 -0.0045234174948374
1617293835696196352 -0.0157136305310725 0.0035842119652710 -0.0449576623081057 0.0042393004934920 -0.0009401271420923 -0.0113824456817490
1617293835728347648 -0.0167313056100085 0.0023796096094670 -0.0432210535771008 -0.0091704278227978 0.0072698893198646 -0.0100141680372159
1617293835745074688 -0.0167189738425921 0.0017882826526170 -0.0410615854650521 -0.0107835712627105 -0.0017265735010449 -0.0066137784426649
1617293835775900160 -0.0165660258379953 0.0036927331165444 -0.0398818317337579 0.0022980239376074 -0.0036418112246788 -0.0073602849251782
1617293835801633536 -0.0175236626132504 0.0061207104507315 -0.0415648430162444 0.0026696426782327 -0.0008771437379769 -0.0148933763451740
1617293835822788096 -0.0179893935614686 0.0085605827939181 -0.0434112205894796 0.0067648495168239 -0.0011700627615744 -0.0091088755868870
1617293835879984640 -0.0186990700654554 0.0152143842509274 -0.0502209328178760 -0.0081625773420749 -0.0118849291799143 -0.0126396903776055
1617293835904233728 -0.0180386407361911 0.0168924234116154 -0.0502331886852126 -0.0082301100971043 -0.0100975373895175 -0.0139453820649296
1617293835935937280 -0.0169001762088390 0.0190550830286811 -0.0519022679363011 -0.0019575667427106 -0.0022577604352225 -0.0091703183174102
1617293835968125696 -0.0163983501067068 0.0209499554337417 -0.0587760278573334 0.0109680152773107 -0.0074815099415158 -0.0204128519973210
1617293836008099072 -0.0204786457917553 0.0216814312430298 -0.0689259313197096 -0.0034633903597510 -0.0025999807466023 -0.0130579795635442
1617293836051489024 -0.0191541772184126 0.0226909131068254 -0.0745063510257947 -0.0000763937860929 0.0019497826488198 -0.0024065301684538
1617293836080043008 -0.0156376048254635 0.0247717487244248 -0.0759152910741789 0.0013139344624968 0.0045352513615931 -0.0085479594675901
1617293836104051712 -0.0122341342208512 0.0266219665758546 -0.0730565021599057 -0.0011654749275575 -0.0022852657480428 -0.0045378544575331
1617293836127877632 -0.0083686717461235 0.0296809186775300 -0.0686945359104953 -0.0051434385744734 0.0084870282320733 0.0058886122689247
1617293836160352768 -0.0001425359867426 0.0345124481637792 -0.0608506250201830 -0.0053271556990469 -0.0018115360813386 -0.0020920882568004
1617293836192222720 0.0051113408957345 0.0356401140310851 -0.0519258259461417 -0.0054643604250984 0.0062420410624780 -0.0111611732814751
1617293836218640128 0.0078826183365062 0.0340142275539597 -0.0453769277359411 -0.0226576340679139 0.0111976561485209 -0.0098245401419308
1617293836247574528 0.0077555482682198 0.0320289767825603 -0.0408107929047208 -0.0159274453459753 0.0107094588824341 -0.0171361283554765
1617293836282408192 0.0066131333869174 0.0270186799448506 -0.0365301196475851 -0.0107133224092461 0.0185488590655745 -0.0141014545792666
1617293836303894016 0.0067698337854420 0.0263302967452329 -0.0359513228636532 -0.0184381351122997 0.0085555957811518 -0.0177719863609147
1617293836335629056 0.0076113926897916 0.0209393969034659 -0.0330845364766265 -0.0176059246574106 0.0062798035604621 -0.0133314708487120
1617293836351264000 0.0079942021227559 0.0198913111880581 -0.0329598446112279 -0.0177707535744455 0.0079773102117840 -0.0132860555714136
1617293836374300416 0.0084934020329387 0.0178712538145305 -0.0331174192419373 -0.0074633794072957 0.0093940393083238 -0.0166771712616962
1617293836401555968 0.0057554726951781 0.0109524065764220 -0.0367805187580892 -0.0067771257310497 0.0083085197809867 -0.0265668456926136
1617293836423994112 0.0023834686703569 0.0054242114594782 -0.0392709125987717 -0.0031098946067897 0.0111572152782622 -0.0239438532596140
1617293836441022464 -0.0001831454114594 0.0013265969049458 -0.0408419375424232 -0.0025451207115509 0.0100198648235680 -0.0282629135866754
1617293836456393472 -0.0018074659498591 -0.0011832606484871 -0.0416783445617595 -0.0104118425766374 0.0109394386927662 -0.0290102085424224
1617293836472618752 -0.0044091772609718 -0.0051849557970898 -0.0435207380460040 0.0055660580165595 0.0136439823634256 -0.0177497360823666
1617293836491217920 -0.0059145596934674 -0.0053815823066610 -0.0468686817419169 0.0172241420442162 0.0085158654873946 -0.0096562070842616
1617293836512703232 -0.0092252550867526 -0.0064610893281212 -0.0515711038419220 0.0197275759292173 0.0051904902127533 -0.0135211376315235
1617293836524286720 -0.0097548433116398 -0.0068463688430060 -0.0522504629201958 0.0162202030676989 -0.0005469350924448 -0.0118392420492140
1617293836544022016 -0.0091686309556631 -0.0068260449291583 -0.0538321515758491 -0.0022003828846961 -0.0064638140157138 -0.0047714913360667
1617293836576036608 -0.0073909678270029 -0.0067136851950025 -0.0530065359798077 0.0030268360014954 -0.0048925537520730 -0.0018628503493775
1617293836592854784 -0.0069181954808226 -0.0069902371636638 -0.0522822227423334 -0.0038464722868554 -0.0043060832995327 -0.0060371783461491
1617293836618083584 -0.0068883560924050 -0.0078345364608754 -0.0521648385909660 0.0018463189650827 0.0066786667672097 -0.0022969820034046
1617293836640660480 -0.0055702364951104 -0.0073382284285813 -0.0521305290866425 0.0034974560205521 -0.0040490325034781 0.0101572027729706
1617293836671807488 -0.0009456585937767 -0.0031599111049447 -0.0507611955699899 0.0034418488510588 -0.0213784384882886 -0.0013924125177398
1617293836696195072 0.0021848899307928 0.0010632498567341 -0.0503264851220952 0.0281641716837354 -0.0175439136365487 -0.0004305578627859
1617293836723123200 0.0067691120417939 0.0072326889851912 -0.0496281965754010 0.0228220884471027 -0.0183634827919406 0.0034404755466450
1617293836752413696 0.0119681550955763 0.0135948476711219 -0.0493966453712630 0.0169619110730536 -0.0131210259822358 0.0039861223646703
1617293836776036352 0.0157640664552864 0.0171763998629783 -0.0487146058213520 0.0062075431140867 -0.0170201535148437 0.0029429961524463
1617293836803002624 0.0192003112518543 0.0190833377193030 -0.0461459443393932 0.0046520868957579 -0.0166016601932825 0.0045927842149329
1617293836819072512 0.0215669519913959 0.0200166997812236 -0.0442780191297781 -0.0027579655532672 -0.0115403827062768 0.0035603130022178
1617293836848085248 0.0254625228337813 0.0206150934359535 -0.0402213297045429 -0.0001806054905831 -0.0109523827938510 -0.0034757663326769
1617293836873883136 0.0287669064208732 0.0202544968112415 -0.0375285021300667 -0.0069282607709922 -0.0171566441247588 -0.0048680111129550
1617293836900407040 0.0299871015848493 0.0186933717539516 -0.0354685683321791 -0.0153784444468855 -0.0161108185236555 -0.0029032900456567
1617293836928822272 0.0336512463915885 0.0147712039217032 -0.0318182479945181 -0.0160308973544692 -0.0137341347674680 0.0012988225263847
1617293836959900416 0.0358341396684581 0.0100667751298635 -0.0314360723938668 -0.0083215544712758 -0.0022638677934444 -0.0033099706545510
1617293836992455168 0.0393627282441414 0.0065345366917755 -0.0334697607392116 -0.0215550300096394 -0.0189997598960286 -0.0059320376017553
1617293837016156672 0.0399435067417524 0.0034420964968794 -0.0361439525673174 -0.0222312308423014 0.0026342054586690 0.0011671361863387
1617293837040656384 0.0406771823219762 0.0007932605503391 -0.0405370738067402 -0.0162672463208429 -0.0024496909093517 -0.0003931792724334
1617293837055821312 0.0399751371059370 -0.0009672167618899 -0.0441324398153075 -0.0098437734401879 -0.0013697515905306 -0.0041183395516943
1617293837072764160 0.0390579763844130 -0.0037137667519539 -0.0476497072933277 -0.0049138395551300 -0.0015535803212327 -0.0069451426500458
1617293837095869952 0.0368151593196840 -0.0083328625360649 -0.0525416612417915 -0.0079477779662231 0.0026910764852185 -0.0062166160665573
1617293837112049152 0.0352900348739903 -0.0105684224867098 -0.0554921814082319 -0.0067006725966713 0.0087002426161068 -0.0008917431354765
1617293837128373504 0.0336605752283821 -0.0129355960818262 -0.0579083409233387 -0.0067013840092708 0.0009604447904454 -0.0034367129276311
1617293837160123904 0.0312359827718697 -0.0177110314061435 -0.0627454843534076 -0.0071768732012794 0.0054352029895726 -0.0022863789649986
1617293837176627200 0.0295698878886340 -0.0190233413174802 -0.0648545308365378 -0.0038315183302451 0.0009197441930552 -0.0039722131762131
1617293837208989440 0.0272639592324079 -0.0228682801411682 -0.0683625171981591 0.0039932671027647 -0.0019038635658879 -0.0061617437885299
1617293837227671808 0.0258633548782182 -0.0252081467906480 -0.0679440680118804 0.0002330040343992 0.0018443781896435 -0.0066034162374324
1617293837240234240 0.0249964679821039 -0.0278206689176267 -0.0673908045512116 -0.0114195327754951 -0.0033458739427175 -0.0028217695793605
1617293837256620288 0.0247426287827663 -0.0300566429898445 -0.0662609824271953 -0.0057425691717497 0.0025750601468739 0.0012751478005592
1617293837286057472 0.0245943053573762 -0.0333773398845806 -0.0634192017912239 -0.0119617986927093 -0.0132755082447575 0.0000842333260621
1617293837311693312 0.0247851461494566 -0.0361044993987686 -0.0608595018463332 0.0063351040008364 -0.0079225083298183 0.0022171426010587
1617293837335628288 0.0254939784315264 -0.0347419356376454 -0.0610123073717792 0.0131246408480070 -0.0036624076291010 0.0013499858314120
1617293837367984128 0.0271552876143045 -0.0322894732004450 -0.0594854332292624 0.0130334892795270 -0.0110976726378304 0.0035923256542290
1617293837400653056 0.0294052792349785 -0.0293702078926535 -0.0564242933406234 0.0160931686193571 -0.0130133495765868 0.0067544512338903
1617293837424324864 0.0319671123718801 -0.0280119983999468 -0.0536972416844126 0.0142592904858353 -0.0127364150783762 0.0044948561921600
1617293837441089024 0.0320809402527397 -0.0276407439362481 -0.0512536414842673 0.0139031475825756 -0.0126314541518963 0.0038823136753925
1617293837464046080 0.0342447320068008 -0.0264149201813193 -0.0482317366163878 0.0080402221932115 -0.0194552500394162 0.0053021261475052
1617293837496339712 0.0371474937053999 -0.0242123954124413 -0.0453946977387373 0.0090035730416658 -0.0021856813241787 0.0000778552256029
1617293837520279296 0.0368017288431990 -0.0231081223243567 -0.0455818473896010 0.0112554574625689 -0.0036469916980051 0.0018004567448533
1617293837536752640 0.0370525746494819 -0.0203060361044895 -0.0461464615091476 0.0196027632268194 -0.0025434628096095 0.0038657606789395
1617293837556408832 0.0368060711274443 -0.0183529296874399 -0.0466246893408347 0.0193933981457773 -0.0018059050915404 0.0020076016658029
1617293837583937536 0.0384083739692792 -0.0160063014782481 -0.0445947572883192 0.0044019910463613 -0.0107459023951244 0.0081304692111517
1617293837596289024 0.0388916378385989 -0.0149159513963576 -0.0438439655717068 0.0073491741462835 -0.0090383202378892 0.0086860780509738
1617293837628099840 0.0399938829295678 -0.0116338010952562 -0.0419637365578556 0.0140114179814030 0.0027637802248734 -0.0055449151599616
1617293837649849344 0.0382996570503888 -0.0105523013502146 -0.0428340250755702 0.0040642499766733 0.0057495243264751 0.0047802849878697
1617293837672045824 0.0368168409134239 -0.0088955608203044 -0.0442725994489843 0.0050301163067751 0.0016996878612276 0.0018269257745376
1617293837687955712 0.0355703377126195 -0.0073596505722144 -0.0456742371096595 0.0144503226430065 0.0044390730266253 0.0031851628699034
1617293837703950336 0.0350133335759186 -0.0062545865252821 -0.0466302413672291 0.0121025869596308 0.0057606374829484 0.0027651274520526
1617293837736614144 0.0333844806911633 -0.0039217385568373 -0.0491297339946614 0.0123003657411336 0.0098890865679560 0.0035617278020300
1617293837768548864 0.0308367742922998 -0.0033338537356493 -0.0508595849544002 0.0153900459754317 0.0135893207616800 0.0006637242511536
1617293837791718144 0.0284546961343770 -0.0009112034102716 -0.0527433099652733 0.0031385928580593 0.0122292507643523 -0.0019411135804571
1617293837808653056 0.0266086434668367 -0.0004893946462514 -0.0544267779798868 0.0144663766838744 0.0105449812274117 0.0004169194525995
1617293837824220160 0.0247523189869768 0.0001776699488720 -0.0547699449284711 0.0111053882328439 -0.0002068382552154 0.0001751229516259
1617293837831922176 0.0245208277039736 0.0005025862545043 -0.0547879279237319 0.0101272390639891 -0.0035621339711118 0.0016961205950631
1617293837854648576 0.0235568512737086 0.0010355020991843 -0.0544019906080408 0.0018512024903579 -0.0007817812023898 0.0040922863413032
1617293837872961536 0.0234985440248024 0.0009759697961788 -0.0522210587491866 0.0074948289216662 -0.0030436988750409 0.0052299653740541
1617293837884339200 0.0230975864805643 0.0006232407677145 -0.0515129881312007 0.0079325149975261 -0.0001493297786651 0.0059988891977698
1617293837928018944 0.0213495434674925 0.0028352929954783 -0.0489782872794625 0.0169971406405222 0.0053115232708889 0.0045853287885406
1617293837943908352 0.0198331740101110 0.0038211420397356 -0.0496736008972957 0.0135883285213890 -0.0004259984757892 0.0050551376754901
1617293837951820800 0.0197331430164043 0.0036009066070753 -0.0494504746032661 0.0149802821800113 -0.0026317745326809 0.0018029549592768
1617293837984254208 0.0173754411770633 0.0027708831849309 -0.0480409060488646 -0.0079868943403771 -0.0040223811525813 0.0003411245305268
1617293838004754432 0.0159642933681450 0.0018800691161475 -0.0466730279497478 -0.0061525296552944 0.0085310138774291 0.0006872911474973
1617293838021716992 0.0147188594264404 -0.0007874276001139 -0.0454705627806774 -0.0166569873032872 0.0041671360339102 -0.0009528734534532
1617293838052353280 0.0122909659817758 -0.0045431691694113 -0.0428317469777031 -0.0135480702080502 -0.0012082905483699 0.0062141749993014
1617293838064722176 0.0105743589221328 -0.0065386930846860 -0.0410183539861491 -0.0152910159023423 0.0030386830760839 0.0036246176389319
1617293838080870656 0.0097516103896479 -0.0085119874566372 -0.0397680417096592 -0.0128829854097708 0.0049114772582100 0.0053781030695567
1617293838095364864 0.0090815603909587 -0.0094955234735253 -0.0392635098358853 -0.0075383699591300 0.0047567891524433 0.0041760729097873
1617293838121896192 0.0064539884540698 -0.0141156818589042 -0.0372722309993195 -0.0116262437566158 0.0004065089375173 0.0065882510044561
1617293838133064192 0.0060117913999942 -0.0148304672552018 -0.0367372815863330 -0.0098480898398577 0.0015656401492432 0.0074995948449687
1617293838152006144 0.0055769051834130 -0.0182087669927294 -0.0340248054107682 -0.0162798040381726 -0.0049195780482632 0.0079173877974112
1617293838170043648 0.0048040782296582 -0.0199037280525150 -0.0330738650189721 -0.0072218939335887 0.0029390615998028 0.0075346957965791
1617293838186893824 0.0043668271260686 -0.0211485241670811 -0.0318867716157136 -0.0038921453382808 -0.0018994916907830 0.0082766488902461
1617293838186893824 0.0043668271260686 -0.0211485241670811 -0.0318867716157136 -0.0038921453382808 -0.0018994916907830 0.0082766488902461
1617293838186893824 0.0043668271260686 -0.0211485241670811 -0.0318867716157136 -0.0038921453382808 -0.0018994916907830 0.0082766488902461
1617293838238512640 0.0055401892707061 -0.0221657691455005 -0.0302280576834325 0.0071252634193460 0.0000672286936411 0.0020176393241484
1617293838252813312 0.0059491975741579 -0.0218223077940812 -0.0304502180489842 0.0066455624063789 -0.0006202268594812 0.0002532008457170
1617293838283066368 0.0056594869265657 -0.0214904659380332 -0.0303183023591287 0.0012841436733252 0.0028696965700949 0.0025409348875312
1617293838293422080 0.0061656646338867 -0.0213367429536039 -0.0301748898028474 -0.0013272238952105 0.0024532690873477 0.0012034995162017
1617293838311871232 0.0060369886795063 -0.0209826916656486 -0.0303269496431882 0.0055172604713637 0.0044335717997629 0.0035754943504748
1617293838328017408 0.0060915067523445 -0.0215208668719625 -0.0301282350902887 0.0066954247795217 -0.0015066604366849 0.0023509798599142
1617293838342692608 0.0062767455851212 -0.0215991624764322 -0.0302015865361927 0.0102369677360901 0.0033209713523028 0.0027765900142190
1617293838357497856 0.0064987213935627 -0.0212253811595479 -0.0300108229757298 0.0023291332367686 -0.0083965671767604 0.0029623404965295
1617293838376220928 0.0061960225093344 -0.0208935033508250 -0.0300471072140016 0.0022184063336239 0.0012808951196154 0.0008741205851940
1617293838391781120 0.0063942895261703 -0.0206029617969702 -0.0298711668081660 -0.0043425150677552 -0.0067040783030122 -0.0009051363639502
1617293838407961344 0.0061563094511603 -0.0208687372842675 -0.0301844291208699 -0.0023149055324553 -0.0038437364167119 0.0037081690525105
1617293838440535552 0.0062484934407056 -0.0211688755391156 -0.0300029999400277 -0.0029669210145043 -0.0030145614367173 0.0014996870476038
1617293838471660544 0.0063434497809513 -0.0211616304093719 -0.0298639909206088 -0.0009424043205392 -0.0061957647366911 -0.0000161839964730
1617293838496659968 0.0058590885743818 -0.0214045987243960 -0.0298992065390862 0.0034910019181421 -0.0038513650512584 0.0013454453597098
1617293838521012480 0.0059836286395951 -0.0214503651477305 -0.0302031917301328 0.0080648178455898 -0.0009940083476328 0.0025087309702256
1617293838544029440 0.0060424018860505 -0.0216128731824468 -0.0298752596351023 0.0020194203988880 -0.0052465721321222 0.0005461015455605
1617293838567955200 0.0063699014579392 -0.0214299313261148 -0.0302421060805191 -0.0010734114405285 -0.0052662495852708 0.0018278957336037
1617293838592578048 0.0061276829620653 -0.0211132614987976 -0.0299576112339103 0.0006077364357551 0.0024489194759604 0.0038738687318318
1617293838631994368 0.0064076371190007 -0.0216321145213290 -0.0299985666567340 0.0088622392226758 0.0058607290321354 -0.0005380239283200
1617293838657889280 0.0061686836586245 -0.0212375472321284 -0.0300344514208423 0.0063154310079386 -0.0069021208591173 0.0043700166790202
1617293838680100096 0.0063781362982292 -0.0212302547928493 -0.0295930897617747 0.0014700402064761 -0.0034489285067944 0.0061437336779101
1617293838711183872 0.0060114802688341 -0.0213923334452012 -0.0300248547535038 0.0003268064414734 0.0020337102815796 0.0014932241975937
1617293838727869952 0.0063993337289195 -0.0215406289073456 -0.0298393575940965 0.0070913193119828 0.0007982652145714 0.0077979410058414
1617293838744563968 0.0060218772497263 -0.0215726973616042 -0.0300535676247965 0.0048974873526713 -0.0015429946580319 0.0051472389596876
1617293838784306176 0.0059797020991263 -0.0214481786016780 -0.0298423017186816 0.0031320071980587 0.0090003159083062 0.0027584969644100
1617293838807846912 0.0057349176475415 -0.0211654307887450 -0.0299649402868797 -0.0021501481585071 -0.0032143296307163 0.0026542592894595
1617293838840125952 0.0056632613036648 -0.0215853806662888 -0.0297752300066279 0.0019930841941245 -0.0001479494085992 0.0037506322025593
1617293838872515328 0.0058538943692279 -0.0217390477243482 -0.0296517086005284 0.0057379620369083 -0.0017810646483100 0.0014161530889380
1617293838895881728 0.0058200338916329 -0.0216344392756880 -0.0297782535020148 0.0005580058020128 -0.0035036701006976 0.0023079258169994
1617293838927822080 0.0059221834299887 -0.0213064603348084 -0.0296138885258573 0.0009285650084943 0.0016574999048757 0.0005558899789288
1617293838957853696 0.0062075384776177 -0.0216647114278056 -0.0300676592176737 0.0073117404672259 -0.0056982999132364 0.0034719531218319
1617293838992392704 0.0058985052647270 -0.0218573645010526 -0.0298567768067558 0.0060215389918840 -0.0049659259024329 0.0019370673412175
1617293839024240128 0.0059140554623282 -0.0220476247240663 -0.0298627010086007 0.0022283871962472 -0.0062242305753514 -0.0004717666419233
1617293839049184768 0.0051541086136477 -0.0218385247501988 -0.0297995364261638 0.0037529255437408 -0.0022131584047813 0.0077497559506716
1617293839080336896 0.0058548382280752 -0.0218747077883614 -0.0299830548568811 0.0043805704919261 -0.0041277442750303 0.0031211755978188
1617293839103852288 0.0060750177343556 -0.0218116121758205 -0.0298572617743718 -0.0007854159984368 0.0007094812828080 -0.0000787078732019
1617293839135979520 0.0064697470804946 -0.0218394143847433 -0.0299819069611079 0.0017738493923010 -0.0082016509427054 0.0056056591433313
1617293839161209856 0.0056152505394707 -0.0217864228053580 -0.0296732985224090 0.0022872196913604 0.0043244083485951 0.0007230850577141
1617293839182566144 0.0059527795760153 -0.0221009101721637 -0.0300354364990185 -0.0024194688541111 -0.0091271861508862 -0.0001538360479786
1617293839223785728 0.0053336651963579 -0.0217927265076529 -0.0301154045686509 0.0068758066141578 -0.0012971476245882 0.0015784730590402
1617293839256369408 0.0042735518253942 -0.0217339296161403 -0.0305518594736880 0.0045393746404001 0.0013416235508959 0.0065538191403149
1617293839275860736 0.0024174111036622 -0.0203789705114622 -0.0324910229108822 0.0004664670301574 0.0048513736312550 0.0067572302889539
1617293839312474624 -0.0072560231869938 -0.0158211072261008 -0.0410055018228438 0.0005500489124523 0.0109092695005473 0.0075411281072471
1617293839335673088 -0.0137230012303153 -0.0132306797284809 -0.0464860130406346 0.0018741909629049 0.0142036769915220 0.0077060708706530
1617293839352134912 -0.0168583248221177 -0.0117257920425015 -0.0489034825854425 0.0031895348643912 0.0153369117398640 0.0032000140437682
1617293839382744320 -0.0199149546473647 -0.0101363802196598 -0.0525991459038233 0.0061011281693400 0.0033102619795403 0.0034712628086146
1617293839408061440 -0.0217820682793907 -0.0094610515299247 -0.0548006678355761 -0.0007374530603127 0.0018874394747033 0.0016375521740582
1617293839423851264 -0.0226910890489940 -0.0095570504977201 -0.0551063308181094 0.0085211620739190 0.0003904639172579 0.0028895350409708
1617293839458255872 -0.0227513350791772 -0.0098042051626793 -0.0551288997767673 0.0003768531542914 -0.0015553182415834 0.0020262892736134
1617293839473914368 -0.0225705916623133 -0.0094932478159080 -0.0553882796827161 0.0007599469104775 -0.0014523637669442 0.0028813667251053
1617293839485886976 -0.0227118244212461 -0.0098341723828456 -0.0551879899950340 0.0015769621733681 -0.0054046549952339 0.0044042259356017
1617293839512344832 -0.0224851468019066 -0.0098034887723510 -0.0551666341062526 0.0001946229318944 0.0012630535269982 -0.0014977951743104
1617293839524923136 -0.0227926717447377 -0.0096177001168574 -0.0548253679895729 0.0028743137936268 -0.0007345475364529 0.0004904123803527
1617293839551723264 -0.0225674934850930 -0.0096492931968726 -0.0551518475707668 0.0024952362317368 0.0000846168852339 0.0009094171665592
1617293839575911936 -0.0229636094024577 -0.0093652857087412 -0.0551251054386808 0.0051040157427318 0.0016904313015794 0.0043305131524501
1617293839608140800 -0.0229220148209807 -0.0097765390337477 -0.0551189588628849 0.0067460937493435 -0.0012489709161428 -0.0014136456353805
1617293839639851776 -0.0221506016145077 -0.0094020290651031 -0.0542529432804695 0.0002107360383141 0.0042228785143000 -0.0087312230906342
1617293839656794112 -0.0214923787142361 -0.0093273194070567 -0.0537812748145472 0.0149252253290640 0.0116645673508652 -0.0078421673600641
1617293839679857152 -0.0220382268691369 -0.0085447934628993 -0.0532819494207044 0.0069660355236030 0.0086714540386790 -0.0056502752481865
1617293839703873536 -0.0216794524649761 -0.0077499876829725 -0.0524377206972466 0.0120812392555394 0.0092462636493776 -0.0021263595100549
1617293839735973120 -0.0229761495943873 -0.0041890323788920 -0.0490140433578345 0.0208218421023923 0.0110572281108632 -0.0067226436453803
1617293839751661824 -0.0223013701290644 -0.0029316949239377 -0.0466530311192913 0.0217855038933911 0.0103194885539596 -0.0112620834523724
1617293839782121472 -0.0203990169044582 -0.0010753278335233 -0.0420562792565989 0.0228732079220186 0.0057841258789447 -0.0124151213876239
1617293839795211008 -0.0197739623439483 0.0008438818691563 -0.0396275682215043 0.0149861150790779 0.0000662830251888 -0.0046215252035769
1617293839823870976 -0.0208575906071696 0.0055412266524762 -0.0359949925261864 0.0205849324032732 0.0083081592462077 0.0088822913957890
1617293839857270272 -0.0238493418334518 0.0109083018551716 -0.0328580018149602 0.0202878874816732 0.0061899718898235 0.0128822256992232
1617293839870091264 -0.0254502478594661 0.0128204328757151 -0.0315900508462654 0.0168850042610771 -0.0002719881508161 0.0151651348711437
1617293839907933184 -0.0336290086458413 0.0282463221103520 -0.0250469250377275 0.0053517956731332 -0.0043128894822760 0.0147297975874645
1617293839936264704 -0.0384053789536364 0.0370027340658304 -0.0211021313031199 0.0089732314136425 -0.0019784667895833 0.0102361497295100
1617293839951695872 -0.0399641777396437 0.0395941043223852 -0.0204421680270651 -0.0035879943585707 -0.0078020190903508 0.0057525971035628
1617293839977081856 -0.0401128540338085 0.0400396138884947 -0.0199374657109815 -0.0027567166346429 -0.0002073520572480 0.0029289749917646
1617293839991976448 -0.0406983526626058 0.0404090609107200 -0.0193864816498939 -0.0043728103330774 -0.0025271021097774 0.0017312880869175
1617293840023053056 -0.0406427751538100 0.0408388338579447 -0.0195906009632236 0.0032964254565091 0.0030550893110074 -0.0009129467406215
1617293840057070080 -0.0403993835354690 0.0408939972451785 -0.0185471877639360 0.0020599234510467 -0.0025653349769134 -0.0012009210184541
1617293840074765312 -0.0398397613938668 0.0407534508040566 -0.0187138437622515 0.0042011091533581 0.0053491505841829 -0.0010248443893492
1617293840103867904 -0.0380366974727143 0.0364235037404790 -0.0200671730123332 -0.0055436132193436 0.0031355167150904 -0.0020596392892578
1617293840124019968 -0.0367979773602488 0.0320063448091161 -0.0220316058535305 -0.0110171802866284 0.0009794118861162 -0.0089377572894038
1617293840143790080 -0.0330525835034787 0.0235348932975277 -0.0260886201844187 -0.0112598763659772 0.0010160100348223 -0.0172541689396560
1617293840169188864 -0.0276890889211318 0.0123260171173034 -0.0301409793097214 -0.0063147812602949 0.0054772198642837 -0.0239677103765030
1617293840203306496 -0.0216693541619448 0.0011976682705267 -0.0350216347972606 0.0033900444265520 0.0080841664017981 -0.0188753724055337
1617293840231838208 -0.0168623670367193 -0.0069491079515319 -0.0378965518150953 0.0099346168443610 0.0065278547434972 -0.0168716054797981
1617293840260189696 -0.0144128367399184 -0.0107335397553425 -0.0390763481569670 0.0098634972105644 0.0099081888169999 -0.0088822362498095
1617293840280122112 -0.0131354353107573 -0.0125754925782857 -0.0401454215163346 0.0109199241191103 0.0112902192705406 -0.0060102476220183
1617293840304880128 -0.0123250220752709 -0.0133961882787709 -0.0408428155215104 0.0099445046751544 0.0061427879277692 0.0002264080436896
1617293840330206464 -0.0117490682158222 -0.0138684333190711 -0.0409229966440300 0.0008978583811452 -0.0029700691807987 -0.0008899034491744
1617293840359916544 -0.0111764369001874 -0.0148976470263139 -0.0401051806706968 0.0089225966684967 0.0036133676480927 -0.0004927125426076
1617293840375915520 -0.0098876267222710 -0.0145007627869933 -0.0401480469116028 0.0042206971992117 0.0035994159331434 -0.0028608758923871
1617293840401527296 -0.0086414151375916 -0.0152672911224959 -0.0398188895219328 0.0045640811583159 -0.0035322868503277 -0.0030707189467868
1617293840416036864 -0.0079103015182993 -0.0159134765346527 -0.0390358642350666 -0.0001888211774268 0.0006576067973816 -0.0007547409919686
1617293840441134336 -0.0064063425454219 -0.0165569255488037 -0.0389219448562774 0.0028318320318080 -0.0033132824969539 -0.0011015012822992
1617293840467723776 -0.0055583228121808 -0.0172457787963666 -0.0386515674266071 -0.0005075834393988 -0.0006597212933431 -0.0023607796994480
1617293840481905408 -0.0053977941195824 -0.0175626057501866 -0.0386126746220476 0.0016151656997484 -0.0039896036374223 -0.0007322936040513
1617293840496013824 -0.0053902600368541 -0.0173112339696404 -0.0384420432278451 0.0001834533638396 -0.0024735741394103 -0.0019357723255652
1617293840525671168 -0.0051905522498746 -0.0173556168807900 -0.0384140360942413 0.0061299347424310 0.0060024924694539 0.0019918003498292
1617293840553489152 -0.0047679272270189 -0.0175919777538602 -0.0383249147399423 0.0018632070403568 -0.0029027723573353 -0.0041461796634319
1617293840575825920 -0.0040191570108059 -0.0173833233317202 -0.0383166781650438 -0.0039257010074504 -0.0048215192865284 -0.0041898310209651
1617293840595539456 -0.0039121245666108 -0.0180989120534521 -0.0382884353416835 -0.0024742647848847 -0.0041638489209619 0.0008112789419039
1617293840616480000 -0.0028090112851883 -0.0181475986329399 -0.0374605757378658 0.0028308972196278 0.0007176508898179 -0.0035390339850599
1617293840633178112 -0.0025606944751934 -0.0189217507468723 -0.0372296819378770 -0.0019686404787586 0.0012641413083208 -0.0014354379103139
1617293840671876096 0.0008228916370609 -0.0213540463968118 -0.0362206647956483 0.0006967126063553 -0.0030829974898464 -0.0000693943223526
1617293840687689984 0.0026975652968330 -0.0219201731918818 -0.0356664409990947 -0.0045160789215062 -0.0076524546967588 -0.0016538486744958
1617293840702409984 0.0039447409458380 -0.0220896101583553 -0.0354585626338863 -0.0008331207120166 -0.0087969205119928 -0.0019680383147064
1617293840702409984 0.0039447409458380 -0.0220896101583553 -0.0354585626338863 -0.0008331207120166 -0.0087969205119928 -0.0019680383147064
1617293840702409984 0.0039447409458380 -0.0220896101583553 -0.0354585626338863 -0.0008331207120166 -0.0087969205119928 -0.0019680383147064
1617293840777153024 0.0128969409708814 -0.0288730622868632 -0.0328962021910666 -0.0081970836269877 -0.0163188493217045 -0.0049700441984415
1617293840824058368 0.0200988011279351 -0.0346129487708906 -0.0319264824048123 -0.0091417568841254 -0.0131903840138719 -0.0009802243519673
1617293840824058368 0.0200988011279351 -0.0346129487708906 -0.0319264824048123 -0.0091417568841254 -0.0131903840138719 -0.0009802243519673
1617293840879809024 0.0298567218987041 -0.0379042443673762 -0.0250144368799490 0.0002654165078069 -0.0344535408890209 0.0235185341664018
1617293840879809024 0.0298567218987041 -0.0379042443673762 -0.0250144368799490 0.0002654165078069 -0.0344535408890209 0.0235185341664018
1617293840929499648 0.0360831951906542 -0.0217567476672128 -0.0003226858329758 0.0088347780071994 -0.0354949349445866 0.0251148653192178
1617293840943964416 0.0387590648855112 -0.0160620597083906 0.0087417917323362 0.0115198531715533 -0.0330712396440224 0.0145979351005173
1617293840976641536 0.0434004460018208 -0.0076602618436868 0.0233132976104129 0.0197656536072128 -0.0111409887593987 0.0079541514636751
1617293841008925696 0.0466954273871773 -0.0008190490913168 0.0330870344619787 -0.0035818188028488 -0.0145798249309828 0.0008746419568251
1617293841024246272 0.0475834464684622 0.0013033744499132 0.0367937285935946 0.0051801554219951 -0.0189878033775527 0.0077777657422952
1617293841056490752 0.0487805134100591 0.0055270067911407 0.0435096855673953 0.0000356190236337 -0.0126926301328230 0.0092022124851778
1617293841083951616 0.0490080845199961 0.0083543198044337 0.0475243822685621 -0.0046073773330012 -0.0278936315027761 0.0097448245568104
1617293841104165632 0.0492400281081939 0.0112409591576132 0.0512620052777180 -0.0124076852281091 -0.0217496183441830 0.0076556127909104
1617293841127820032 0.0487691985380597 0.0131876074090236 0.0538680562098011 -0.0063147960689842 -0.0058734477230980 0.0046547729105958
1617293841151823360 0.0483921908015286 0.0141533322045611 0.0536290747862217 -0.0130174194853472 -0.0108329066020392 0.0015778328755665
1617293841173916160 0.0474593187612097 0.0144172621212447 0.0534715261708743 -0.0108067595998937 -0.0053684874838612 0.0101103833008261
1617293841217390336 0.0436257148326625 0.0144570597305868 0.0490788710025067 -0.0083330333563583 -0.0071867089949986 0.0116450157014853
1617293841231807232 0.0421233271248110 0.0141722626152273 0.0478695495252099 -0.0081284781938954 -0.0013059186882322 0.0074422525077943
1617293841272590080 0.0388748724693678 0.0134682400021715 0.0439249126028398 -0.0084154311702536 0.0054371952553165 -0.0008625314843873
1617293841295863296 0.0366179552983037 0.0118736936048466 0.0407888300295453 -0.0049603853209444 0.0054047451690842 0.0020447910277070
1617293841311744512 0.0348486908860572 0.0125325756375194 0.0383817025835052 -0.0058826287286657 0.0100154641581163 0.0023708388414590
1617293841327835648 0.0316435631983948 0.0122082518852932 0.0364708312381516 -0.0075263566541078 0.0025358161033857 0.0063020620731826
1617293841347636480 0.0300820174563815 0.0116846496398888 0.0343367446275192 -0.0069536331608438 0.0029996704726644 0.0081518608246481
1617293841384912384 0.0229921460077497 0.0110120776277969 0.0286793901922833 -0.0040186276312518 0.0054114698037319 0.0058608765395073
1617293841416786688 0.0169863022965897 0.0103340794249639 0.0239884676218652 -0.0032377066019262 0.0039024314971576 0.0045915355085679
1617293841431799296 0.0144120521711286 0.0102088083220782 0.0229372726658724 0.0023763153690667 0.0086534308314381 -0.0005472790468569
1617293841461429248 0.0115364720262494 0.0109449566474764 0.0232582448299321 0.0042992234812589 -0.0022462997595726 -0.0030541090347087
1617293841480433152 0.0076724636375774 0.0133117292135463 0.0244189676120766 0.0028726265678948 0.0035049122684724 0.0024807450237114
1617293841497042688 0.0058750442862848 0.0138462629286039 0.0241517020861400 0.0017895668783815 0.0098027788961944 0.0001263246721492
1617293841520869120 -0.0007111311263711 0.0141183913799209 0.0229276248790332 0.0012359744945842 0.0037204071239363 0.0010838430849993
1617293841532359936 -0.0028953280206798 0.0142029414182477 0.0220959476337929 -0.0065946956276941 0.0017517885472565 -0.0020825104135998
1617293841560981504 -0.0083222071687651 0.0137915908879627 0.0227648338310799 0.0105953779600164 0.0033035507693652 0.0013411409725851
1617293841575925248 -0.0104465481859789 0.0147359211789157 0.0249855812798114 0.0082325491835889 -0.0016949446318557 0.0001823432881280
1617293841601013760 -0.0163912936553229 0.0188405754669979 0.0278745451408157 0.0133975095188525 -0.0017091184052084 0.0037952574769025
1617293841613130496 -0.0179667545942860 0.0202130179974786 0.0291047776540991 0.0084308033028899 0.0033228548498803 0.0028684471606440
1617293841643204096 -0.0255867375788320 0.0260201419545514 0.0332337372818358 0.0075282823179146 0.0022404472350496 0.0034986745083406
1617293841663995392 -0.0297586180421502 0.0286924470082611 0.0354660841286950 -0.0030276372960763 -0.0000990323959470 -0.0010581549177518
1617293841687968768 -0.0332865328381439 0.0286510921113400 0.0360900388036508 -0.0010303147661710 -0.0022693643840264 0.0037616699184879
1617293841703415296 -0.0346175088455820 0.0291627066620481 0.0359836441865216 -0.0012892838095430 0.0019675646829206 0.0034799412827158
1617293841729318144 -0.0375942971014075 0.0276377100481832 0.0319148174046184 -0.0147664888715795 -0.0016476426190195 -0.0061647889853657
1617293841741373952 -0.0381744041606093 0.0263198980460144 0.0307856038129111 -0.0179730871132431 -0.0085130003844480 -0.0068805284237994
1617293841768331008 -0.0399059468556971 0.0208914605382162 0.0256574395332753 -0.0155612983051035 -0.0064745945119861 -0.0063661984806760
1617293841784112384 -0.0391510418868473 0.0180720464606981 0.0218672992436434 -0.0139228579108324 -0.0020589105165324 -0.0070401873618731
1617293841807859712 -0.0403617881553861 0.0136845551439234 0.0165644608179773 -0.0035744856766129 -0.0014991689032987 -0.0001396144693095
1617293841835578624 -0.0383582894042716 0.0095771671210554 0.0123582535396618 0.0002966425568830 0.0019790362678674 -0.0051357304335504
1617293841847899648 -0.0359349925757661 0.0069745743036511 0.0110660158734059 0.0000231046293466 -0.0118123878016003 -0.0028649623351680
1617293841870819840 -0.0338021014798870 0.0052652656369728 0.0108451679136889 -0.0001215617783133 -0.0173297627911949 -0.0040965628987653
1617293841888087808 -0.0243460875433210 -0.0006076081039398 0.0108118009889417 -0.0040662301391261 -0.0123943574345261 -0.0055642140641211
1617293841920919808 -0.0165487899618342 -0.0071677967856047 0.0121129708974937 -0.0071093013912453 -0.0085699857127063 -0.0098151950825214
1617293841934114304 -0.0108828494954267 -0.0113728509151952 0.0125568239774107 0.0029922907183135 -0.0054121987475419 -0.0042376902021189
1617293841964126464 -0.0026216372415601 -0.0190210367759452 0.0123652854370706 -0.0055799225351196 -0.0148728174449113 -0.0018834935531789
1617293841975940352 0.0004788135678032 -0.0227419109087737 0.0116515729123153 -0.0086050678792799 -0.0095493513066726 -0.0032840245768778
1617293841992018944 0.0021570085234039 -0.0240033464538695 0.0117712487138008 -0.0045444415793372 -0.0044508544645799 -0.0000742065927081
1617293842041633536 0.0075342861118958 -0.0280660824184639 0.0124821535426885 -0.0018960507806910 0.0033952109935079 -0.0001989600748597
1617293842079964160 0.0076334622308992 -0.0274932244837754 0.0124504645888776 -0.0021806590597995 -0.0041832224772787 -0.0008394684507523
1617293842120177664 0.0066771140660065 -0.0277077145392761 0.0131491743555018 -0.0042241563841843 -0.0004084626404871 0.0025446966212038
1617293842144602368 0.0069802084296564 -0.0280521438262164 0.0125523985710508 -0.0036369008509521 0.0025314699279939 0.0038741624865760
1617293842170078208 0.0069391118592968 -0.0279879097123046 0.0126676308882575 0.0001295264919445 -0.0012596647999311 -0.0020458401494866
1617293842193064192 0.0067482364460723 -0.0279516987109600 0.0129384277657995 0.0035670657069690 0.0061130419540267 0.0011233370483581
1617293842207838720 0.0076804253855733 -0.0281261038044411 0.0123933213012377 0.0109462971374409 0.0054499072836330 0.0025550484213500
1617293842233788416 0.0075244387142034 -0.0283773797111853 0.0123403869798307 0.0067582779397190 0.0066901432373630 -0.0047266256995714
1617293842247786752 0.0082216489612307 -0.0294805822085182 0.0119914982296443 0.0113712016465913 0.0119547313098406 -0.0141632981142180
1617293842263967744 0.0085538317018836 -0.0299776745417839 0.0121749633971399 0.0280279376726968 0.0186969710066365 -0.0256546132584070
1617293842278639104 0.0098998065599239 -0.0305780967407044 0.0123044226127189 0.0419582181470262 0.0258810646221965 -0.0344865193495426
1617293842305689088 0.0147261748401544 -0.0294179052593082 0.0189962806418155 0.0508833477089411 0.0113274547143125 -0.0182913454417333
1617293842335671296 0.0179883301279588 -0.0215071716627111 0.0294395033350725 0.0234889673067293 -0.0079952698779935 -0.0065286241470233
1617293842360611584 0.0203031164579565 -0.0184104093314314 0.0333439624776571 0.0256090247483261 0.0101504633764826 -0.0061458827136878
1617293842383612672 0.0209688393032746 -0.0170135675441272 0.0335792592126913 0.0204916995607063 0.0173501493382635 0.0002075162151025
1617293842407691520 0.0203253210469478 -0.0178344456711201 0.0305839699767461 0.0118588292397128 0.0168748816418321 -0.0057830385245114
1617293842426899712 0.0197519571116298 -0.0189432914067793 0.0270083752761116 0.0109897663524570 0.0149939779427626 -0.0089383605861721
1617293842441616384 0.0194043320313621 -0.0202921465461983 0.0254946598125409 0.0116528857506474 0.0114349110847551 -0.0099439031677659
1617293842471965184 0.0172200991843079 -0.0240318265909662 0.0168069343203202 0.0140981075539784 0.0155635829772044 -0.0040554714975232
1617293842480608768 0.0168291511310157 -0.0249743379428482 0.0148945596205312 0.0154424274172372 0.0175328147314979 0.0007999314336793
1617293842496000256 0.0150235797163811 -0.0269418591600753 0.0117658750086008 0.0065191704598054 0.0134323838852837 -0.0012119238820174
1617293842515358464 0.0140970593152122 -0.0293615846895900 0.0075741020633936 -0.0015862512239480 0.0068642205784951 -0.0000696995775473
1617293842536367616 0.0104387375100506 -0.0333051137368059 0.0003368206535654 -0.0013130641173428 0.0086250783514101 0.0038305064011134
1617293842543779072 0.0091727319805384 -0.0342275355329890 -0.0021180119970813 -0.0013265762625199 0.0066085602542742 0.0034533720174955
1617293842543779072 0.0091727319805384 -0.0342275355329890 -0.0021180119970813 -0.0013265762625199 0.0066085602542742 0.0034533720174955
1617293842600736256 -0.0028268953167770 -0.0351224149169803 -0.0136955149460193 0.0110644978107558 -0.0000382053450822 0.0181213773451226
1617293842635896064 -0.0080371860231793 -0.0265582932076745 -0.0078736705046845 0.0283755695350016 -0.0131834638266767 -0.0021066484706572
1617293842663613440 -0.0079180614958746 -0.0175379668586636 0.0052617350766309 0.0286741123601450 -0.0010094833920647 -0.0041937815544602
1617293842687858688 -0.0086758133838849 -0.0122998192791196 0.0125579256097715 0.0138210965753279 -0.0023925860741804 0.0031449709068713
1617293842720701696 -0.0125789249667842 -0.0068182680969523 0.0183311888051309 0.0070605133382921 -0.0051130861507597 0.0061519190391144
1617293842745457152 -0.0155146499416788 -0.0038227578186378 0.0205194683254327 0.0005477223668736 -0.0019095497145204 0.0051035798369361
1617293842769189120 -0.0182478388525346 -0.0018529706920547 0.0216755785125691 -0.0013170550302764 -0.0040852490308231 0.0030842704301139
1617293842783917824 -0.0227786362356191 0.0006906039020550 0.0230561434373039 0.0027484485072415 0.0019283895127543 0.0010530015494327
1617293842805878528 -0.0253814287900191 0.0029114365719484 0.0234875755338968 0.0092359533695757 0.0107699064007070 0.0047084748293020
1617293842824267264 -0.0317402412140622 0.0069213475726799 0.0237922278467964 0.0099791702641624 0.0106387832758937 0.0050859225704716
1617293842833264384 -0.0336694683971738 0.0079835680156017 0.0233746894616105 0.0019697725424100 0.0089808156206631 0.0050606449761689
1617293842873379328 -0.0381650640805258 0.0075596034227965 0.0231012254282368 0.0054490299674387 0.0021327598214581 -0.0011020806128653
1617293842879978240 -0.0391849043094241 0.0065628900848414 0.0228315484099332 0.0026550515920655 0.0015450329768199 0.0013564343828951
1617293842910429440 -0.0404178067466111 0.0043543891824464 0.0219120947067444 0.0017631189356973 0.0075188878437168 0.0007355703785099
1617293842935741440 -0.0423334291713922 0.0001302255405947 0.0194157566905088 -0.0040723645386666 0.0015740631347029 -0.0046298097106333
1617293842952305152 -0.0434255502554857 -0.0036009350518664 0.0172469914830946 -0.0072714013655958 0.0083191557716616 -0.0078626581899656
1617293842972721408 -0.0435527122028231 -0.0052305219912728 0.0156225630866872 -0.0095087000720471 0.0069280691951320 -0.0084822963758925
1617293842991870464 -0.0454569429560990 -0.0125542269730447 0.0104194227595892 -0.0029917447517618 0.0032040129531088 -0.0085088511986197
1617293843016199424 -0.0479496497521980 -0.0155724540153567 0.0062399842449707 0.0073364075489126 0.0155011480490785 -0.0038374637956245
1617293843039998976 -0.0518171402240720 -0.0173490367942192 0.0029798835860334 0.0030663344029546 0.0065024525989053 -0.0027372759685425
1617293843039998976 -0.0518481803645722 -0.0173540051270843 0.0029689178875618 0.0030190239577050 0.0048141729912934 -0.0022694666749817
1617293843071747072 -0.0543136816384997 -0.0173313070050683 0.0010671652057806 0.0142262780510857 0.0132023649117682 -0.0022155112817230
1617293843093508352 -0.0582354420070095 -0.0160399148924098 0.0003124679634295 0.0136405978117960 0.0067167297575435 -0.0039010706230713
1617293843111840000 -0.0595307369821405 -0.0142968892747667 0.0007926851764510 0.0094016041458059 -0.0033832294108888 -0.0018871160364202
1617293843120816640 -0.0596692945957440 -0.0138595130026263 0.0017545656989658 0.0162723691163959 0.0033022562843982 -0.0032423364197089
1617293843150490880 -0.0584841492948174 -0.0123762907335865 0.0039302657778586 0.0091695672287072 -0.0032108678732974 -0.0045097554150770
1617293843162260480 -0.0583204601709409 -0.0122481587779633 0.0049090604958860 0.0108767680853599 -0.0003220805568254 -0.0024756965337670
1617293843188239104 -0.0562927945644185 -0.0111498058970258 0.0080261946780245 0.0053384692058138 -0.0135286230900182 -0.0017385715958568
1617293843200935168 -0.0536999755482586 -0.0110967970071573 0.0111510746641935 0.0151808138325731 -0.0086074264644583 -0.0014073089752304
1617293843217949440 -0.0519197695386549 -0.0107396031891511 0.0130301452029705 0.0190243312211399 -0.0066622320608475 -0.0031407273867403
1617293843239961600 -0.0465123607612964 -0.0102017098965119 0.0175932600095146 0.0068929831918237 0.0032538527137257 -0.0038706776090431
1617293843250835968 -0.0452828152386966 -0.0097829943941547 0.0180605222754134 0.0105681195883001 0.0031372754556922 -0.0019622896746308
1617293843284688896 -0.0450458857806470 -0.0046764043093155 0.0172280167870740 0.0126077832626612 0.0103853963133995 0.0019408684863847
1617293843295258624 -0.0459171455891226 -0.0030344363339830 0.0171046578338010 0.0116103782215877 0.0114183411495609 0.0011897675150384
1617293843309601024 -0.0471486818245538 0.0010539234028825 0.0164791651833158 0.0139890573703489 0.0121810499392262 0.0044929106258054
1617293843328018176 -0.0499363683322998 0.0071015055062651 0.0147596725886368 0.0030202149204070 0.0037878810926702 0.0079170179896504
1617293843356551680 -0.0522386243943187 0.0121218955838849 0.0130603373125818 0.0099610136668209 0.0050563614367615 0.0053246862977196
1617293843367398144 -0.0529343898764429 0.0138536799985559 0.0120731833913222 0.0079797233121358 0.0073448498566295 0.0063848299517953
1617293843391872000 -0.0558401982311946 0.0189058976550588 0.0084984089443034 0.0016061315290339 0.0048586017336261 0.0038780553866370
1617293843407948032 -0.0573383871666176 0.0223002841883709 0.0075130104392917 0.0173888435074895 0.0193046694158383 0.0081220877968209
1617293843426601216 -0.0590298566486326 0.0256597194243566 0.0067492784229426 0.0130910509963810 0.0106500733819088 0.0022952052409877
1617293843440897024 -0.0598371420013626 0.0295127316209467 0.0067324246079840 0.0162368938640651 0.0077150964190937 0.0024656029505403
1617293843463043328 -0.0601051478860433 0.0313477707858119 0.0075149638679512 0.0141746266342267 0.0159021277337961 -0.0019442367718889
1617293843477502464 -0.0593359816894832 0.0324770136722559 0.0081588017036055 0.0124382990340387 0.0056148696780981 -0.0000787263990907
1617293843496782080 -0.0562842187911084 0.0319566413162714 0.0086124485584313 0.0133263908515557 0.0014819295578398 -0.0035740056394388
1617293843511892480 -0.0541457989727724 0.0320843971484622 0.0096258186374617 0.0059899606352268 -0.0006946227067909 -0.0050745030073037
1617293843527867648 -0.0510065613879717 0.0320249105124164 0.0117282922266326 0.0052502289644673 0.0010908287982183 -0.0014740224651851
1617293843527867648 -0.0510065613879717 0.0320249105124164 0.0117282922266326 0.0052502289644673 0.0010908287982183 -0.0014740224651851
1617293843557920000 -0.0497159522447453 0.0320833535825132 0.0125751401690225 0.0061412613209899 0.0047481467415850 -0.0023974840397264
1617293843574272512 -0.0434458603692030 0.0309026584236795 0.0180723267699788 0.0146445289638019 0.0008325108988221 -0.0067809285159368
1617293843594628352 -0.0391320227671246 0.0291614663923909 0.0210777666444189 0.0141871886262786 -0.0038232616874095 -0.0105725968640980
1617293843607018496 -0.0354789926631623 0.0269858049293066 0.0237609081005764 0.0116664439811068 -0.0010122399218693 -0.0098369616581251
1617293843632545280 -0.0287391258292944 0.0229512916464184 0.0264927068414303 0.0035410956944136 -0.0024324671878362 -0.0052923018609582
1617293843649496320 -0.0260649112892054 0.0205152515919994 0.0266894571880237 0.0064775444095167 0.0049484399681816 0.0010608131409343
1617293843665256448 -0.0236807576024079 0.0175555208829396 0.0263522623781839 0.0036439565820655 0.0028900824765163 -0.0008436253061211
1617293843688034304 -0.0200905088580385 0.0123249246966139 0.0234412502065148 0.0032603699458350 0.0036579063711275 -0.0051071052101794
1617293843696191744 -0.0191480947115670 0.0102735702721985 0.0224124990406086 0.0033517513699812 0.0081884464505690 -0.0044806009513525
1617293843711509248 -0.0182411751761012 0.0083451393742164 0.0214575893422471 0.0063692535240224 0.0104068852263601 -0.0031562216254235
1617293843736066048 -0.0142434414797029 0.0012616448647531 0.0172811495470159 0.0080498392670496 0.0141003225784132 -0.0020907758914211
1617293843754717952 -0.0127131095256841 -0.0019325607984539 0.0152610025071205 0.0027515888181715 0.0062645051970377 0.0019014908409755
1617293843768073728 -0.0114576953878969 -0.0047917172289278 0.0124423847147301 -0.0033754271021940 0.0013551171490516 0.0016428542312792
1617293843796459264 -0.0100093125922870 -0.0086883360252179 0.0085037425679738 -0.0019502970723836 0.0021601316704693 0.0009011688391407
1617293843807948032 -0.0084092840778748 -0.0118348115846377 0.0065106594397694 0.0023005409788512 0.0034321435246419 0.0009517734743041
1617293843833074688 -0.0054237220153124 -0.0163762450509924 0.0040653667627201 0.0036822051310997 0.0027737538099320 0.0016187756938005
1617293843848588544 -0.0036896938874861 -0.0190865534134118 0.0040102140281251 -0.0011236372932398 -0.0018106729771473 -0.0002874845164333
1617293843865985536 -0.0007350112003704 -0.0219883443898075 0.0036565422406209 -0.0012877223321317 -0.0047163165841604 0.0001663376860780
1617293843886049280 0.0010719822150038 -0.0245201690275549 0.0040211582886248 0.0043289742872473 -0.0068751530428157 0.0049967947548057
1617293843904258048 0.0040633978830395 -0.0271472016742929 0.0049838883595273 0.0012563271315274 -0.0003193949911366 0.0032915899867242
1617293843919889152 0.0047600182398940 -0.0277808143029430 0.0054271968230014 -0.0017769704970883 -0.0008670114428459 0.0031342772929643
1617293843944534784 0.0093577841163802 -0.0315392957434096 0.0092355210152698 0.0088880835249121 -0.0094753038495615 0.0046072473512510
1617293843957817856 0.0105453395780438 -0.0327301122458719 0.0105651734316802 0.0129560918713501 -0.0052530997829738 0.0075401820294701
1617293843985445888 0.0148079605975906 -0.0360201348512548 0.0152762188472950 0.0091306987345145 -0.0129372363629700 0.0076050222568129
1617293844008153088 0.0168773659278070 -0.0387008102202316 0.0182360081459094 0.0059840542623898 -0.0034563418915016 0.0074452765731620
1617293844025319680 0.0171499777496213 -0.0390033479832251 0.0199934121702862 0.0213561385057706 0.0009749553826592 0.0089195910867507
1617293844042142464 0.0172764312960711 -0.0394098781920400 0.0207449189456513 0.0158177548045867 -0.0033280357732140 0.0053873795979307
1617293844064489728 0.0169276863565854 -0.0396617533100258 0.0226290548168216 0.0183871750335180 0.0082715939076786 0.0107204516951931
1617293844077319680 0.0166923964875297 -0.0395762756313289 0.0229627017166402 0.0167158707351883 0.0012256715727246 0.0103646649384211
1617293844104022272 0.0148650591845601 -0.0385899246531224 0.0228222892113268 0.0097487222110616 0.0001017642499526 0.0112069195878737
1617293844117655296 0.0137756225669097 -0.0388467532507219 0.0232464482149827 0.0099636614886386 0.0021404832478170 0.0125117014294681
1617293844147229952 0.0121642476546451 -0.0372287310883168 0.0231882368398757 0.0135422451707512 0.0020719501125748 0.0128236733367023
1617293844157888512 0.0119915060424296 -0.0371468653645768 0.0232780147152797 0.0103366183768984 0.0024173802433419 0.0079516406201944
1617293844178019584 0.0116800893003636 -0.0373327233823026 0.0241410360349697 0.0163663618920118 0.0024925930156258 0.0104305166249847
1617293844207513088 0.0101874247937111 -0.0344140706014925 0.0250453856200361 0.0135881010796395 0.0080356121484576 0.0096110614246304
1617293844231790848 0.0063811697164820 -0.0296438404254102 0.0251152057143347 0.0124751139090502 0.0056087143984859 0.0119040708213024
1617293844256250112 0.0026171164214705 -0.0246322945650584 0.0249264142246590 0.0113015415781331 0.0026621509845574 0.0099166758800291
1617293844287606272 -0.0033821426237361 -0.0167565162891769 0.0239521966083944 0.0219667493330595 0.0066749207461557 0.0121336611689493
1617293844311602944 -0.0071637354976845 -0.0116364053354092 0.0237342368468796 0.0203105033781181 0.0083157692057522 0.0152499709817490
1617293844327800320 -0.0101806268120809 -0.0079005362162124 0.0238776411029259 0.0109721824267096 0.0015336961013114 0.0139217917141985
1617293844352118016 -0.0139502181505991 -0.0039684680826100 0.0243159494814533 0.0114045074782520 0.0049343192420879 0.0157071108739310
1617293844375616256 -0.0162491653299161 -0.0017867306175238 0.0237089977584772 0.0090765521572893 0.0004666627289413 0.0094714805425596
1617293844409530880 -0.0187862563686620 -0.0005080857254484 0.0232235753971052 0.0220300986339800 0.0095229944548634 0.0128965406567987
1617293844432042240 -0.0202920915385220 0.0004251325258451 0.0244424190068796 0.0063702110248605 0.0028788226068929 0.0082094603748574
1617293844463771392 -0.0221270753431591 0.0019468687853120 0.0258088362839949 0.0080131673072044 -0.0045664529409109 0.0115959024387687
1617293844480197888 -0.0225979794818187 0.0030906152470753 0.0261703244492985 0.0105229447196834 0.0081042887570313 0.0125189216695340
1617293844503834880 -0.0230412959347432 0.0044188082511920 0.0276827962166401 0.0070364944284605 -0.0079707970165131 0.0075868049978792
1617293844528051456 -0.0237055855159624 0.0051742112312302 0.0284111414800048 0.0090668227494827 0.0043238283322702 0.0121171056232976
1617293844551679744 -0.0235286450931166 0.0064819551529056 0.0296700097378020 0.0061043799326864 0.0033988011666777 0.0105216726948173
1617293844575602176 -0.0239602156740702 0.0069119211793183 0.0303155599860372 0.0061073490788669 0.0051122187913968 0.0138838864737769
1617293844592815104 -0.0238382119358067 0.0069727814186704 0.0311607814521017 0.0058043017215969 0.0002906432705903 0.0167829222505506
1617293844618993152 -0.0240549599590109 0.0075470734656117 0.0315423951257629 0.0035904352823967 -0.0032805475857118 0.0125071264697362
1617293844639923456 -0.0243937393497031 0.0070066288645544 0.0321175167473905 0.0014406080211332 0.0077177418667515 0.0164412964122533
1617293844671638784 -0.0247915330585716 0.0063676446400060 0.0318734620019345 0.0010103670614909 0.0011857477744306 0.0206409701550863
1617293844679850752 -0.0252966308540648 0.0065294276814930 0.0320348069534159 0.0056378776834089 0.0030175829047879 0.0219851754099238
1617293844711622144 -0.0255799295419719 0.0079793580456180 0.0354123745878742 0.0065969220148843 -0.0026810360806544 0.0166630127298187
1617293844711622144 -0.0255799295419719 0.0079793580456180 0.0354123745878742 0.0065969220148843 -0.0026810360806544 0.0166630127298187
1617293844759675392 -0.0230418278335423 0.0094052371300423 0.0419947340855911 -0.0063848750427309 -0.0019308665799482 0.0221048769065775
1617293844783577344 -0.0215330099232838 0.0072676948232598 0.0434467374488019 -0.0066792797927631 -0.0034887489688154 0.0254534907086324
1617293844815805440 -0.0175950535406930 0.0012270316123678 0.0434617616720916 -0.0113478150819979 -0.0007549016010122 0.0188753577484689
1617293844833088512 -0.0155758115128052 -0.0034451902408267 0.0423577522369409 -0.0005720651273750 -0.0006254480256144 0.0175094710812622
1617293844871596288 -0.0121429609152854 -0.0144341212729118 0.0369696287405260 -0.0148318679691419 0.0065187444214853 0.0182263442928799
1617293844887648000 -0.0120236286616472 -0.0179107742126656 0.0354560943719095 -0.0086997338959261 0.0052292168773144 0.0170768797744749
1617293844920193792 -0.0113287514771713 -0.0218204794577122 0.0337159957494798 0.0051340751791550 0.0050471772460007 0.0122255610986147
1617293844943652352 -0.0094257630886818 -0.0219455548183407 0.0362735704918207 0.0081191907037166 0.0020009428986231 0.0075402488920888
1617293844975907840 -0.0070800534637272 -0.0210121794406143 0.0398826917274182 0.0053801586926675 0.0010828768352800 0.0057311561716014
1617293845016323584 -0.0073437576051291 -0.0179724799498227 0.0418167468508166 0.0016650214247339 0.0044230633188700 0.0133163154832566
1617293845039882240 -0.0083652130411751 -0.0160814997546670 0.0408390391619435 -0.0018337820667256 0.0027761279953241 0.0067098030912136
1617293845072420608 -0.0097894130025987 -0.0171404232040972 0.0363379973140869 -0.0103460641667610 0.0027105153290603 0.0087541739883585
1617293845104251904 -0.0109659496353148 -0.0193286374768900 0.0315248782602116 -0.0064965852186031 0.0115105555454094 0.0095569394815415
1617293845127756544 -0.0127673875980778 -0.0195040657859174 0.0291066196466731 -0.0117848530177012 0.0050630405312102 0.0141682777438172
1617293845151574016 -0.0128183325381340 -0.0186655788377844 0.0285411812787691 -0.0069819217880878 0.0058734552750622 0.0118451093133956
1617293845176060416 -0.0115323373214885 -0.0182062288235166 0.0292933525128262 -0.0073381951240761 -0.0040061385083557 0.0090725702421873
1617293845208167168 -0.0093306714219999 -0.0177538522965799 0.0318030649240561 -0.0053267912112169 0.0039207499093927 0.0060945080417337
1617293845225883136 -0.0089923833845386 -0.0177389266102571 0.0323796952264412 -0.0063260072062681 0.0008036501051915 0.0062983899088936
1617293845281769472 -0.0068859254939423 -0.0131699701599856 0.0377360392215681 -0.0023761074683493 0.0020001870166077 0.0060876446035435
1617293845295726336 -0.0065791586311349 -0.0127421346624585 0.0381179178797578 -0.0013224927293515 0.0000321171444315 0.0055598852517126
1617293845320223744 -0.0047081068704639 -0.0143168005623228 0.0384976114142732 -0.0052906682987916 0.0081486828172259 0.0050846974896192
1617293845335846400 -0.0040316200114590 -0.0154345372613041 0.0377421937868473 -0.0043451192703834 0.0094261537668227 0.0068227484562364
1617293845360927744 -0.0033505871365019 -0.0180862201270486 0.0363601410128285 -0.0056069998975629 0.0071542190220007 0.0091128771727069
1617293845384266496 -0.0028094620978217 -0.0203520016297814 0.0337303759628188 -0.0092294724346674 0.0089846905572654 0.0137088047918791
1617293845403117568 -0.0029435123220161 -0.0218231199697467 0.0325406783219796 -0.0098023648000144 0.0022705252373141 0.0112795374531023
1617293845415177984 -0.0024573216386844 -0.0221338855689319 0.0320965203101178 -0.0131473612961361 0.0015486507730685 0.0096169603653050
1617293845431951104 -0.0028670649513638 -0.0227688497518147 0.0321912782448639 -0.0002099982471023 0.0106423937600469 0.0151320560760313
1617293845447913472 -0.0023303674179465 -0.0223702610893825 0.0332560007276138 -0.0001212056706200 0.0049260409248751 0.0112647332459747
1617293845473209600 -0.0026527097783494 -0.0206626368721272 0.0346163380861041 -0.0000892287359223 0.0041543988958197 0.0182027880703018
1617293845487695104 -0.0017022275853043 -0.0199376218917367 0.0365561606556680 0.0015886354388767 0.0021762000369851 0.0157025136054086
1617293845504544768 -0.0010745697848436 -0.0188134003955253 0.0388600253620208 0.0052779859696470 -0.0040943032358452 0.0107261530225973
1617293845504544768 -0.0010745697848436 -0.0188134003955253 0.0388600253620208 0.0052779859696470 -0.0040943032358452 0.0107261530225973
1617293845529514752 0.0013141685338430 -0.0178577929490201 0.0416785872280284 -0.0018675414686483 -0.0066807237656110 0.0106212373708764
1617293845559428096 0.0038300674682665 -0.0163511215466071 0.0464901882800823 0.0001347552217367 -0.0008561271158739 0.0163226266932920
1617293845577473280 0.0041823783804558 -0.0158814065093596 0.0481312148279837 -0.0083051454955354 -0.0058765189849846 0.0151980496921173
1617293845603914496 0.0041609119704789 -0.0164632060074094 0.0491970957858077 -0.0088935109682667 -0.0009109390325332 0.0124219355710877
1617293845616902144 0.0046342129541328 -0.0168846898657512 0.0488591606171849 -0.0128425541443049 0.0015149051125240 0.0135753072627101
1617293845631902464 0.0039991555605915 -0.0175759093319150 0.0481939069716247 -0.0156346588782742 0.0027939527999045 0.0116696297093638
1617293845645298688 0.0035633678640225 -0.0187303270801493 0.0473131130464001 -0.0214361256231067 0.0000756919534708 0.0110494290833384
1617293845673879552 0.0013626460550872 -0.0220498295470985 0.0439491038312112 -0.0162500174591848 -0.0029388973718354 0.0105195835962128
1617293845687678464 0.0007795935397102 -0.0238844239640459 0.0423391377311034 -0.0181588783099070 0.0014859317204611 0.0123986403876780
1617293845712634368 -0.0008898089896204 -0.0263360421791806 0.0395980472212063 -0.0194977796991694 -0.0015214155965825 0.0128170008019498
1617293845712634368 -0.0008898089896204 -0.0263360421791806 0.0395980472212063 -0.0194977796991694 -0.0015214155965825 0.0128170008019498
1617293845752404992 -0.0028788015024132 -0.0295530915074197 0.0355200032387703 -0.0169316992977559 0.0012114240740070 0.0108779900865368
1617293845765839104 -0.0036257063354066 -0.0298629689423585 0.0347612633178846 -0.0201226201489791 -0.0097220820622915 0.0114459030648177
1617293845796015616 -0.0067716892099838 -0.0292554819239562 0.0324367204972478 -0.0104268131772088 -0.0103078582051207 0.0141347644557744
1617293845816229888 -0.0083806299930104 -0.0275419295100907 0.0322611808971563 -0.0154602485473502 -0.0043634574150287 0.0109466512238322
1617293845824899584 -0.0085370041542952 -0.0265159467001537 0.0323208357055741 -0.0106047447826550 -0.0023666766219931 0.0090037103951047
1617293845856311040 -0.0094731145985070 -0.0266489649386807 0.0300521114098049 -0.0124740856193221 0.0013302528218959 0.0055970032160034
1617293845872052992 -0.0099641082928738 -0.0268335512969826 0.0280405818963100 -0.0188051518294789 -0.0000738940620215 0.0076222095778187
1617293845895917056 -0.0116144292729777 -0.0283848093423809 0.0230758823710901 -0.0227076636179912 -0.0017995288017285 0.0081971917208757
1617293845911698688 -0.0121653361024063 -0.0296177184374195 0.0200292393998449 -0.0213727028676663 -0.0026001607237625 0.0091496949504714
1617293845925572864 -0.0121755519883622 -0.0304009021823558 0.0187098694484033 -0.0189577548833726 -0.0043299938998272 0.0092707583623171
1617293845948254464 -0.0111331574482747 -0.0338472350331167 0.0150002458395884 -0.0232813636306865 -0.0067121090292857 0.0042516286881096
1617293845968446464 -0.0083816699575875 -0.0368013051932865 0.0121729820947190 -0.0216646468104154 -0.0099395081378521 0.0015592151152090
1617293845983765504 -0.0067020329002865 -0.0396733553181856 0.0112197035825251 -0.0216424438984039 -0.0078979744878584 -0.0007195915356702
1617293846000807168 -0.0039351456805758 -0.0415236264329515 0.0094342578034504 -0.0151951589382047 -0.0095522380737353 0.0021982544085582
1617293846024734208 -0.0030104961501729 -0.0445179875572185 0.0064522071412840 -0.0227333341612083 -0.0077432437143312 0.0027586474943219
1617293846041420288 -0.0025537973127589 -0.0451947300797171 0.0041613732821449 -0.0184174404191826 -0.0058594036810683 0.0052772596546404
1617293846061039872 -0.0022118181340520 -0.0465397715724680 0.0026551532854622 -0.0094342741539834 -0.0025361941352890 0.0052113419717641
1617293846088284672 0.0001159204798326 -0.0474689684505307 0.0009550138824249 -0.0028923416943668 -0.0054609783466788 0.0050619763488391
1617293846111820288 0.0003454490131396 -0.0463276308179863 -0.0000374943242064 -0.0082185238714087 -0.0088475358954947 0.0036110749761153
1617293846127743744 0.0001324160996512 -0.0460109530011863 -0.0010160488983062 -0.0102133871160786 -0.0025499770492464 0.0008426623974033
1617293846143723008 0.0001615790451915 -0.0447180056025245 -0.0014213713635719 -0.0170168964378083 -0.0036165791961934 0.0004518222708317
1617293846151889920 -0.0000914838426434 -0.0445262460198127 -0.0019462311459463 -0.0195723394933619 -0.0020058138214753 0.0006110921062051
1617293846185389824 -0.0018833451767210 -0.0429091519690441 -0.0030332962186614 -0.0147368553472782 -0.0015219590447061 0.0018193599621749
1617293846199908352 -0.0023229832697284 -0.0429123735054424 -0.0036595627298634 -0.0033719930716917 0.0031897265156356 -0.0046035654099933
1617293846218078976 -0.0022411043820178 -0.0430421560032638 -0.0038967571723513 -0.0024291246358691 0.0007455146115749 -0.0087617221510870
1617293846244466432 -0.0009449731742662 -0.0427144779996095 -0.0047600461397309 -0.0055183329070338 0.0038422745148910 -0.0040217408473172
1617293846258069760 -0.0000990999488429 -0.0422836544353494 -0.0051038881996515 -0.0143286764831769 -0.0027387733479232 -0.0049240907938376
1617293846275929856 -0.0001163372589963 -0.0421865422662011 -0.0050921383329221 -0.0071349436286274 -0.0047109253744929 -0.0030102523262125
1617293846306315008 0.0011277551943410 -0.0418023809430116 -0.0063085187265432 -0.0176438598922039 -0.0058954057361821 -0.0044638952613398
1617293846334666240 0.0034697616937743 -0.0422473046137219 -0.0072962612064038 -0.0149281555547484 -0.0035300771120295 -0.0074744057689723
1617293846353017088 0.0062335476624225 -0.0426455444021124 -0.0073501183131284 -0.0140575691151096 -0.0045206151775070 -0.0103917310175497
1617293846369697792 0.0075889471451985 -0.0422046543201514 -0.0070848712617816 -0.0136342346795129 -0.0057268379909009 -0.0086108641301550
1617293846387814144 0.0083264337089925 -0.0421374081710612 -0.0070238915307215 -0.0149097396238624 -0.0081446302936138 -0.0052313463167076
1617293846408612864 0.0123937238468748 -0.0419547526046158 -0.0067135786689249 -0.0097258926486170 -0.0051410688342962 -0.0055323709523755
1617293846435799808 0.0148850963992351 -0.0406977126069763 -0.0054510858488841 -0.0182898521024908 -0.0138703456393139 -0.0082851183604743
1617293846459360000 0.0177603316648042 -0.0386782162471712 -0.0020290929588615 -0.0256890195141659 -0.0214815737562884 -0.0137789633317175
1617293846472107776 0.0197133328870081 -0.0374937061102282 -0.0016233377299187 -0.0212320475231779 -0.0116365638621918 -0.0037867030269355
1617293846486271488 0.0203303370185652 -0.0365820502868684 -0.0012847347416267 -0.0184514817876087 -0.0151920584667599 -0.0007516133129293
1617293846511673344 0.0225629049078266 -0.0326420459333288 -0.0000731375931784 -0.0102601602464222 -0.0049208185007310 -0.0005772191614536
1617293846527892736 0.0225169840212250 -0.0286585574854690 0.0019531911064940 -0.0163207020815876 -0.0169793573079185 0.0017305605793379
1617293846560552704 0.0219957701065655 -0.0193186917530590 0.0051334861486253 -0.0181826012771887 -0.0201212067174888 0.0033165468233393
1617293846583814400 0.0207626313640945 -0.0118384998051869 0.0076632462061915 -0.0093302861669584 -0.0077006336041682 0.0037297059061287
1617293846600665088 0.0201956084154594 -0.0060605334674390 0.0085647209088611 -0.0080930012878710 -0.0105773964513386 -0.0000249086049550
1617293846640846336 0.0166321377559909 0.0067645153097503 0.0105049442841691 -0.0055432375087322 0.0002571066243107 0.0018349069978026
1617293846673794048 0.0142713051499773 0.0151814767193511 0.0106798866473157 -0.0088866901906539 -0.0039351967043984 -0.0037482387570090
1617293846697522432 0.0123222547273831 0.0211575050105513 0.0112511480169432 -0.0070737679174806 0.0070601450491692 0.0012782264869138
1617293846721367296 0.0117677531280239 0.0232891070006858 0.0105440494620071 -0.0057898571688463 0.0032903645705129 -0.0087431341808956
1617293846752586752 0.0131800674015248 0.0255429641996018 0.0102761128194758 -0.0048866422801068 -0.0031941964653960 -0.0069651534293899
1617293846768128000 0.0150328938193076 0.0256655681466692 0.0100806208164975 -0.0122660663524755 -0.0001652458709797 -0.0139047856474146
1617293846791759104 0.0154301735380464 0.0241792646002188 0.0077311481448965 -0.0088233716084834 0.0116060899400609 -0.0098243361948499
1617293846807669248 0.0146104192650042 0.0232402473156949 0.0039141285703824 -0.0065102185985836 0.0090984979789701 -0.0075499483161688
1617293846825386240 0.0140514537101168 0.0219862819374981 0.0015217523736203 -0.0146054053056988 0.0057977281844586 -0.0080890115178955
1617293846849638656 0.0138215730737780 0.0184301373589525 -0.0041277510428825 -0.0239218651424934 -0.0026106273455093 -0.0009746331180320
1617293846872119040 0.0171073812266048 0.0156203998772081 -0.0041418498176934 -0.0292260166799626 -0.0225482339670689 -0.0019843085709958
1617293846896179200 0.0222435843311368 0.0127955263193742 -0.0002104794322935 -0.0260238278414103 -0.0114898825121296 -0.0002431931532150
1617293846911783680 0.0269842867085401 0.0115686399630427 0.0022072806843988 -0.0275311314022939 -0.0174691388245198 -0.0022700416129637
1617293846934362368 0.0287933973370112 0.0106716686657595 0.0040431054818145 -0.0257817955945650 -0.0134654897603281 -0.0024548544556533
1617293846962126848 0.0370687922553213 0.0061871530639773 0.0106705562915281 -0.0311367505898234 -0.0094555997683984 0.0014645244052193
1617293846984077312 0.0417566138293879 0.0020321991578095 0.0123302577491339 -0.0333086300842939 -0.0088116905494977 0.0007332524377564
1617293847000009728 0.0443359173029378 -0.0021378237507456 0.0126822956873093 -0.0344574344033196 -0.0085746975302795 -0.0011350442308139
1617293847025708800 0.0482090084024090 -0.0098161765686617 0.0115298353624468 -0.0272521016729468 -0.0023706531664170 -0.0054283642434711
1617293847045673216 0.0490617033149010 -0.0128094311494944 0.0103150637259791 -0.0272193321251507 -0.0018693387573055 -0.0079401457243922
1617293847066977536 0.0507366678559125 -0.0241645561524899 0.0045549126042467 -0.0311794836753621 0.0019828345259543 -0.0059638918461369
1617293847087653888 0.0498951047473188 -0.0293702773927625 -0.0006066943778748 -0.0233763287158012 0.0065052799167468 0.0003108859024790
1617293847112474624 0.0467836204614578 -0.0311354551842709 -0.0039211568125633 -0.0219810974450401 -0.0016799708251719 -0.0044477995088765
1617293847125019392 0.0452338271546291 -0.0311050658530439 -0.0046477044421922 -0.0124886703496149 0.0068032785841086 -0.0027895140186135
1617293847156416256 0.0394943315104937 -0.0270010081130497 -0.0026068535250956 -0.0029499500789851 0.0000158493064478 0.0005161723857250
1617293847176213248 0.0345806461677157 -0.0221474795843730 0.0007767831873271 -0.0097410912967795 -0.0027495762049498 -0.0011636771805141
1617293847202075648 0.0310007011936169 -0.0162014185133082 0.0064022023263513 -0.0066626739994114 -0.0088738451840703 -0.0008829291298025
1617293847207841792 0.0289822847456117 -0.0145186415889914 0.0087236039484823 -0.0127636848987990 -0.0092894653850364 -0.0029895469920347
1617293847234153216 0.0266845253361483 -0.0119282021072238 0.0131700110465759 -0.0163156188537899 -0.0083321098859269 -0.0022024270310283
1617293847266286336 0.0164837395181977 -0.0106486544033970 0.0196697113503789 -0.0218287065897158 0.0065896080091771 -0.0049182716012413
1617293847287665920 0.0096574091646741 -0.0134301037878558 0.0197572907344067 -0.0256591422578912 -0.0090592871770885 -0.0047142651354256
1617293847312483584 0.0027218159694910 -0.0182804258703607 0.0193618459336241 -0.0294240263239858 -0.0051252754236990 -0.0113926832167962
1617293847327909120 -0.0006868145097704 -0.0221333555088789 0.0184837910695807 -0.0217100683255988 -0.0011260431687583 -0.0157804882077348
1617293847355102464 -0.0064636649831235 -0.0282003573827714 0.0176067668488790 -0.0172360476347299 0.0006970008084646 -0.0160307240022616
1617293847373455616 -0.0094647958629209 -0.0312641218165524 0.0174308730483626 -0.0085287963494795 0.0117474419182644 -0.0126222664210242
1617293847407820800 -0.0153226517071811 -0.0390401007935265 0.0198839879601062 -0.0049554315191366 0.0051343231563499 -0.0143247884814802
1617293847426854656 -0.0166908520488158 -0.0418104514542437 0.0217091428026145 -0.0083046771224448 0.0009011139333378 -0.0132962719100916
1617293847455426816 -0.0166907327282891 -0.0467773407498700 0.0255231638415035 -0.0094128417521343 -0.0019835508502541 -0.0196369793058673
1617293847467646208 -0.0165444892318173 -0.0492352853042077 0.0293766274439547 -0.0090078229742094 -0.0041183929348503 -0.0123210716052987
1617293847481226496 -0.0164009648227938 -0.0503672166517890 0.0315781255643271 -0.0082173233901009 -0.0036752423049325 -0.0167526177842041
1617293847496117504 -0.0158843368713818 -0.0516334019446673 0.0363278494000336 -0.0053926927787718 -0.0091571943650155 -0.0176587934460169
1617293847523341056 -0.0174498681286682 -0.0513943566051972 0.0462129387762567 -0.0037464334305130 -0.0015837001400807 -0.0155363005412065
1617293847544492288 -0.0197114072157402 -0.0495395328165573 0.0529662692212150 -0.0098989221629621 -0.0032763281685589 -0.0141427624570488
1617293847570231808 -0.0218638485772013 -0.0489119748846184 0.0591545727566578 -0.0114768837828029 -0.0031999323570444 -0.0186385636593416
1617293847582610176 -0.0227361580960807 -0.0484800764679281 0.0604573975547602 -0.0110042062324395 -0.0015169568320507 -0.0201695614075722
1617293847601344512 -0.0256706273905763 -0.0484460346112405 0.0621014081746630 -0.0039666375984796 0.0023587267813271 -0.0151311829284761
1617293847624369664 -0.0319432599217738 -0.0459363395104879 0.0647627569836204 -0.0069918471535391 -0.0065724749106551 -0.0174065854388395
1617293847632090112 -0.0331564256720689 -0.0452489936120953 0.0653909420899678 -0.0119943837874294 -0.0057855303131847 -0.0149646303340351
1617293847656398080 -0.0386396280140056 -0.0434116082022132 0.0661172500350986 -0.0124145652472217 -0.0038765170084434 -0.0129586733489541
1617293847675198208 -0.0407544215987112 -0.0424452389216598 0.0661418896015040 -0.0182430848790543 -0.0084944835245105 -0.0117251452005591
1617293847708365312 -0.0462632435503610 -0.0420602430333192 0.0647077560492076 -0.0196869478654625 -0.0095496525084928 -0.0121876560924952
1617293847729180928 -0.0497227891852043 -0.0431974368594513 0.0622589568859858 -0.0149314540841077 -0.0025883613896456 -0.0143247953059883
1617293847744843776 -0.0508131485881818 -0.0439587134412411 0.0599954417333087 -0.0114435290817852 -0.0039879479065936 -0.0078659622113961
1617293847752088832 -0.0518875023929972 -0.0441301437837475 0.0590805526882284 -0.0142245998809448 -0.0064510881779711 -0.0095078012908610
1617293847769609728 -0.0523143232261582 -0.0443251470966543 0.0577946480190447 -0.0165416456265901 -0.0086721395169976 -0.0127910816322832
1617293847787834624 -0.0534414635469579 -0.0455101512499948 0.0555196133630725 -0.0173162868620436 -0.0046903533031230 -0.0120902226072483
1617293847816449536 -0.0577648361361073 -0.0466294008317321 0.0484925735867558 -0.0168437380406795 -0.0131585282615214 -0.0073615422085716
1617293847832969216 -0.0592614993791935 -0.0467936286550627 0.0460463362885273 -0.0153463945210991 -0.0092046604875507 -0.0110926156083728
1617293847855962880 -0.0599964426241464 -0.0468548786969587 0.0426017105239806 -0.0262103597098913 -0.0070339222243771 -0.0198068321182258
1617293847871861504 -0.0610278236615899 -0.0457751919120445 0.0397039209471238 -0.0205500029358092 -0.0008451323088120 -0.0166835147562699
1617293847880288512 -0.0613952746445628 -0.0455300559231838 0.0382991540721677 -0.0210450365054301 0.0067843294728364 -0.0194626117135709
1617293847908478464 -0.0636593515054003 -0.0441220587955462 0.0342418200112299 -0.0109807053240627 0.0022974384797639 -0.0206513353824568
1617293847924092672 -0.0650102559472583 -0.0427080627358336 0.0319857164358666 -0.0199563895104064 0.0017914867976674 -0.0178012836397051
1617293847936588288 -0.0669309357148462 -0.0413605165400484 0.0299248531947586 -0.0146147525640876 0.0065538853071483 -0.0223521833634631
1617293847951675648 -0.0682571593112931 -0.0394429020708256 0.0285512492992980 -0.0109366554274856 0.0066284460183173 -0.0203620617245681
1617293847959925248 -0.0687788766729670 -0.0380931593365302 0.0286086229564307 -0.0110592961766602 0.0022136356025081 -0.0219411791328087
1617293847983782656 -0.0675718548352294 -0.0346130629295116 0.0299588656028091 -0.0093690368705589 -0.0018139361103507 -0.0153496595078345
1617293847992182016 -0.0678692340551624 -0.0333147226296364 0.0306246385647818 -0.0116521022669914 -0.0080893045244386 -0.0146740909054878
1617293848007327232 -0.0678608610766838 -0.0326899650116237 0.0313118433156269 -0.0132741196631642 -0.0105984098604771 -0.0149392464238138
1617293848022810112 -0.0665149240461418 -0.0309708207124867 0.0333936563246626 -0.0111099645312062 -0.0100832417389878 -0.0123916123967773
1617293848057245184 -0.0621846440874883 -0.0324281424084476 0.0361894841160247 -0.0106110414654053 -0.0043956280948463 -0.0203535134250315
1617293848072281600 -0.0591453008408969 -0.0351048842885124 0.0368049100175894 -0.0039632073835630 -0.0026980326628681 -0.0191717561864323
1617293848096480256 -0.0536176295837817 -0.0397865318213328 0.0382611773290323 0.0076692537636427 0.0006707924928710 -0.0166751429300107
1617293848111852800 -0.0494509862267360 -0.0418617934429131 0.0403647416950586 0.0103096367942532 -0.0106723051453676 -0.0173745108123191
1617293848127888896 -0.0450182304924894 -0.0427864988998364 0.0437556807951903 0.0187603554270058 -0.0002360990137350 -0.0182551542061914
1617293848143690752 -0.0415570679559910 -0.0431910244055600 0.0483674052089345 0.0173437872442639 -0.0084105504914904 -0.0154762266471265
1617293848160087808 -0.0372253179323858 -0.0430261401130732 0.0531372838477707 0.0235816801799539 -0.0026241893314343 -0.0141286722269664
1617293848173054976 -0.0352267673344963 -0.0427991029670240 0.0554803875696248 0.0208801407742921 -0.0060696530436758 -0.0138491321672951
1617293848191708928 -0.0277164586498120 -0.0406194121414172 0.0645795168554603 0.0178188878118160 -0.0098011607345506 -0.0153333223561722
1617293848202200064 -0.0256547360236306 -0.0394896315803017 0.0674108024870934 0.0171665017234281 -0.0133351658717924 -0.0162253963059501
1617293848207731456 -0.0234074381904256 -0.0379963212570724 0.0700521163351701 0.0156531332665921 -0.0075271824138634 -0.0154850212548022
1617293848247685632 -0.0141395417232296 -0.0329957489522334 0.0778091415949187 0.0124390446564971 -0.0102557690584334 -0.0144331100959641
1617293848263857408 -0.0116361316231395 -0.0312312784265828 0.0787902510906584 0.0098542550992725 -0.0039955337721083 -0.0124940139644320
1617293848281788928 -0.0110448259715230 -0.0282355590901879 0.0786987901493418 0.0165723209390724 0.0031217220459003 -0.0137904419251424
1617293848304265728 -0.0099721086791504 -0.0255238006366070 0.0762188425580351 0.0111980363032007 0.0024754094266975 -0.0183177691758565
1617293848320153856 -0.0090761938721927 -0.0234694109070635 0.0754999933535889 0.0041133175808840 -0.0004164483065573 -0.0135826314543323
1617293848338564864 -0.0086126533739008 -0.0221143279654376 0.0723586017686614 -0.0055683572734270 -0.0030575584691973 -0.0126749089436483
1617293848359921920 -0.0090867133584562 -0.0211989142776307 0.0672108392132706 0.0065611812232328 0.0044221165981442 -0.0138745786082009
1617293848377221888 -0.0096014355709399 -0.0211633839562718 0.0629004355447565 -0.0045646476897906 0.0079678129843843 -0.0133599869255393
1617293848400406272 -0.0098268468571898 -0.0216656374957197 0.0556383028472163 -0.0092051500768893 0.0024050218070159 -0.0123363932440857
1617293848416759296 -0.0100217223383956 -0.0229295977174941 0.0500096852517229 -0.0142060834294925 0.0050721981282037 -0.0134039511993701
1617293848426238208 -0.0093842827472985 -0.0243585713951638 0.0471822364171578 -0.0122036579501457 0.0025342482420425 -0.0119239624770016
1617293848453091584 -0.0081712994235678 -0.0266531549850976 0.0403305740752704 -0.0154606340429995 -0.0106769050445742 -0.0123168704803197
1617293848481821952 -0.0055566438180175 -0.0248343105028743 0.0353587532572956 0.0006090196665197 -0.0070081042594534 -0.0076277362838229
1617293848496135424 -0.0039555501582732 -0.0230314216026859 0.0342469227992382 0.0021351986066020 -0.0073623332139686 -0.0066740872448627
1617293848511796992 -0.0027853198910052 -0.0201331593148109 0.0339664200311034 0.0051730999105050 -0.0114964540309788 -0.0071978302177945
1617293848527836928 -0.0006967717587697 -0.0172056102444459 0.0343080889515746 0.0071339919182574 -0.0109545600685574 -0.0098069886777756
1617293848562682112 0.0032116524261402 -0.0116061419713755 0.0365063018561923 0.0035103011511282 -0.0113444837983507 -0.0087871985207581
1617293848584242944 0.0075706625667286 -0.0078985357072357 0.0382785090614883 0.0043321059286331 -0.0075626089535221 -0.0117930547021087
1617293848600834048 0.0097995712726017 -0.0066931477189325 0.0379331410102630 0.0012437081247464 -0.0071481007975617 -0.0106426696736225
1617293848624318464 0.0126112675092674 -0.0066686852527921 0.0346715196863433 -0.0070642526505469 -0.0025094096061730 -0.0084715629883824
1617293848642172416 0.0153450156839623 -0.0080850075837425 0.0317200847240685 -0.0130353840063343 -0.0077935637238145 -0.0118178837547954
1617293848672490752 0.0198212406285561 -0.0122618152798199 0.0237642957608062 -0.0108478503806514 -0.0015542504633194 -0.0164997972701874
1617293848687632640 0.0210446928385386 -0.0141885843652878 0.0180675331993399 -0.0132092548690419 -0.0031261934259582 -0.0157092563372752
1617293848712563968 0.0241710801737803 -0.0166895110080931 0.0108388391524468 0.0127675774479334 0.0121354209380952 -0.0234859669417183
1617293848746709504 0.0239429604527395 -0.0151580269337536 0.0015414202129077 0.0014607375991907 -0.0056487174514934 -0.0116044434216920
1617293848775773952 0.0212074585865288 -0.0103906543295408 -0.0067596475785471 0.0013550159865928 -0.0022058230153909 -0.0083300614180797
1617293848792853248 0.0210749371540122 -0.0086294826333457 -0.0112129966170460 0.0108940874874070 0.0119716450852975 -0.0086523111032939
